File: Akinwande-lab-measurements/raman/data/Raman 25-12-11 finished-wafer-1/d1_2.txt
2999.69	1429.24
2998.44	1417.21
2997.19	1362.86
2995.94	1376.65
2994.7	1380.43
2993.45	1472.34
2992.2	1383.96
2990.95	1459.82
2989.7	1413.52
2988.45	1387.26
2987.2	1403.03
2985.96	1438.81
2984.71	1488.59
2983.46	1412.32
2982.21	1426.08
2980.96	1347.84
2979.71	1365.61
2978.45	1497.32
2977.2	1411.11
2975.95	1416.87
2974.7	1458.59
2973.45	1448.35
2972.2	1364.21
2970.95	1409.91
2969.69	1439.62
2968.44	1437.38
2967.19	1355.3
2965.94	1375.02
2964.68	1390.75
2963.43	1452.36
2962.18	1362.35
2960.92	1429.92
2959.67	1329.98
2958.42	1405.51
2957.16	1339.49
2955.91	1413
2954.65	1378.89
2953.4	1358.73
2952.14	1418.26
2950.89	1370.22
2949.63	1413.79
2948.38	1321.97
2947.12	1429.23
2945.86	1393.16
2944.61	1450.63
2943.35	1408.6
2942.1	1334.76
2940.84	1330.56
2939.58	1386.01
2938.32	1427.52
2937.07	1371.62
2935.81	1391.26
2934.55	1422.82
2933.29	1309.32
2932.03	1364.72
2930.77	1422.09
2929.52	1368.23
2928.26	1413.66
2927	1449.15
2925.74	1357.6
2924.48	1369.28
2923.22	1355.15
2921.96	1406.5
2920.7	1386.43
2919.44	1354.46
2918.18	1372.07
2916.91	1365.89
2915.65	1393.41
2914.39	1355.51
2913.13	1430.57
2911.87	1380.8
2910.61	1386.51
2909.34	1378.35
2908.08	1372.17
2906.82	1383.82
2905.56	1369.73
2904.29	1373.45
2903.03	1408.83
2901.76	1353.2
2900.5	1400.44
2899.24	1386.35
2897.97	1394.02
2896.71	1429.37
2895.44	1367.85
2894.18	1345.88
2892.91	1359.48
2891.65	1365.17
2890.38	1355.06
2889.12	1384.45
2887.85	1419.76
2886.58	1340.55
2885.32	1369.92
2884.05	1346.01
2882.78	1343.8
2881.52	1345.55
2880.25	1376.88
2878.98	1416.09
2877.71	1386.26
2876.45	1403.77
2875.18	1429.16
2873.91	1361.9
2872.64	1395.17
2871.37	1377.2
2870.1	1298.16
2868.83	1325.51
2867.56	1406.03
2866.29	1340.81
2865.02	1411.45
2863.75	1328.54
2862.48	1379.48
2861.21	1402.85
2859.94	1363.27
2858.67	1386.64
2857.4	1307.74
2856.13	1388.13
2854.86	1305.32
2853.58	1381.75
2852.31	1359.9
2851.04	1477.56
2849.77	1316.21
2848.49	1388.66
2847.22	1362.89
2845.95	1384.26
2844.67	1393.84
2843.4	1399.49
2842.13	1281.5
2840.85	1334.25
2839.58	1334.02
2838.3	1343.6
2837.03	1408.09
2835.75	1421.57
2834.48	1411.53
2833.2	1383.84
2831.93	1350.29
2830.65	1342.22
2829.38	1330.23
2828.1	1377.02
2826.82	1368.94
2825.55	1331.51
2824.27	1280.37
2822.99	1395.64
2821.71	1366.05
2820.44	1352.11
2819.16	1338.19
2817.88	1312.53
2816.6	1347.51
2815.32	1339.45
2814.05	1333.36
2812.77	1356.58
2811.49	1366.12
2810.21	1369.8
2808.93	1371.51
2807.65	1302.91
2806.37	1388.62
2805.09	1333.7
2803.81	1315.9
2802.53	1317.63
2801.25	1245.19
2799.97	1321.08
2798.68	1355.97
2797.4	1357.69
2796.12	1378.91
2794.84	1327.97
2793.56	1292.65
2792.27	1348.96
2790.99	1331.18
2789.71	1334.85
2788.42	1334.62
2787.14	1264.26
2785.86	1343.9
2784.57	1293.04
2783.29	1320.07
2782.01	1284.8
2780.72	1321.56
2779.44	1340.8
2778.15	1365.86
2776.87	1313.1
2775.58	1254.52
2774.3	1306.81
2773.01	1298.81
2771.72	1337.47
2770.44	1331.4
2769.15	1418.62
2767.86	1398.95
2766.58	1305.46
2765.29	1326.6
2764	1297.24
2762.72	1310.61
2761.43	1325.92
2760.14	1327.63
2758.85	1426.37
2757.56	1257.32
2756.27	1274.56
2754.99	1388.78
2753.7	1297.39
2752.41	1365.03
2751.12	1419.08
2749.83	1352.93
2748.54	1306.19
2747.25	1304.03
2745.96	1356.11
2744.67	1322.95
2743.38	1320.78
2742.08	1336.04
2740.79	1339.68
2739.5	1397.52
2738.21	1374.06
2736.92	1373.82
2735.63	1332.96
2734.33	1371.41
2733.04	1361.5
2731.75	1369
2730.45	1399.7
2729.16	1399.46
2727.87	1457.2
2726.57	1352.6
2725.28	1485.67
2723.99	1305.77
2722.69	1506.4
2721.4	1413.46
2720.1	1397.77
2718.81	1472.81
2717.51	1393.42
2716.21	1458.79
2714.92	1473.97
2713.62	1493.01
2712.33	1540.96
2711.03	1538.77
2709.73	1580.92
2708.44	1545.95
2707.14	1645.9
2705.84	1647.54
2704.54	1612.58
2703.25	1668.16
2701.95	1700.61
2700.65	1731.13
2699.35	1723.13
2698.05	1817.15
2696.75	1782.2
2695.45	1820.37
2694.16	1918.18
2692.86	1856.29
2691.56	1829.04
2690.26	1888.34
2688.96	1857.25
2687.66	1806.95
2686.35	1800.87
2685.05	1810.17
2683.75	1802.17
2682.45	1748.07
2681.15	1749.69
2679.85	1684.1
2678.55	1691.48
2677.24	1679.67
2675.94	1583.42
2674.64	1548.6
2673.33	1567.52
2672.03	1592.19
2670.73	1463.41
2669.42	1513.01
2668.12	1447.56
2666.82	1449.23
2665.51	1475.81
2664.21	1377.82
2662.9	1406.32
2661.6	1444.39
2660.29	1336.88
2658.99	1438.15
2657.68	1374.71
2656.37	1359.16
2655.07	1343.61
2653.76	1295.54
2652.46	1404.37
2651.15	1319.96
2649.84	1350.33
2648.53	1342.45
2647.23	1300.15
2645.92	1273.16
2644.61	1297.79
2643.3	1314.76
2641.99	1285.88
2640.69	1207.33
2639.38	1298.8
2638.07	1260.38
2636.76	1304.08
2635.45	1248.49
2634.14	1297.9
2632.83	1404.54
2631.52	1301.26
2630.21	1276.24
2628.9	1205.44
2627.59	1270.07
2626.28	1357.56
2624.96	1294.42
2623.65	1277.04
2622.34	1280.63
2621.03	1274.69
2619.72	1163.97
2618.4	1300.91
2617.09	1294.97
2615.78	1357.58
2614.46	1227.89
2613.15	1252.42
2611.84	1259.82
2610.52	1225.35
2609.21	1221.33
2607.89	1240.14
2606.58	1289.37
2605.27	1306.26
2603.95	1334.55
2602.63	1260.19
2601.32	1223.86
2600	1250.25
2598.69	1253.83
2597.37	1179.53
2596.06	1257.19
2594.74	1306.34
2593.42	1281.43
2592.1	1266.03
2590.79	1288.58
2589.47	1225.74
2588.15	1214.14
2586.83	1261.35
2585.52	1168.21
2584.2	1264.7
2582.88	1291.03
2581.56	1235.83
2580.24	1235.62
2578.92	1284.67
2577.6	1229.5
2576.28	1263.38
2574.96	1248.01
2573.64	1279.99
2572.32	1342.24
2571	1177.33
2569.68	1235.79
2568.36	1188.27
2567.04	1218.33
2565.71	1244.6
2564.39	1253.84
2563.07	1227.15
2561.75	1209.92
2560.42	1249.41
2559.1	1254.86
2557.78	1190.4
2556.46	1275.2
2555.13	1220.2
2553.81	1255.87
2552.48	1253.76
2551.16	1161.04
2549.84	1228.79
2548.51	1224.8
2547.19	1245.34
2545.86	1177.21
2544.54	1209.07
2543.21	1269.21
2541.88	1182.25
2540.56	1193.36
2539.23	1210.11
2537.9	1292.82
2536.58	1164.47
2535.25	1260.35
2533.92	1231.87
2532.6	1160.09
2531.27	1191.9
2529.94	1219.93
2528.61	1229.13
2527.28	1134.82
2525.96	1209.88
2524.63	1213.44
2523.3	1100.37
2521.97	1213.01
2520.64	1171.43
2519.31	1165.59
2517.98	1193.58
2516.65	1214.04
2515.32	1138.67
2513.99	1191.08
2512.66	1130.76
2511.33	1198.17
2509.99	1201.72
2508.66	1156.45
2507.33	1206.93
2506	1148.54
2504.67	1227.15
2503.33	1196.92
2502	1181.7
2500.67	1228.38
2499.33	1177.54
2498	1197.96
2496.67	1197.75
2495.33	1225.65
2494	1182.34
2492.66	1133.42
2491.33	1174.43
2489.99	1217.3
2488.66	1179.64
2487.32	1177.56
2485.99	1227.89
2484.65	1190.25
2483.32	1246.17
2481.98	1232.86
2480.64	1213.94
2479.31	1178.2
2477.97	1198.56
2476.63	1250.69
2475.29	1127.11
2473.96	1143.73
2472.62	1132.32
2471.28	1190.04
2469.94	1184.22
2468.6	1174.68
2467.26	1195.01
2465.93	1183.6
2464.59	1151.66
2463.25	1132.8
2461.91	1153.13
2460.57	1195.83
2459.23	1137.8
2457.89	1212.2
2456.55	1165.37
2455.2	1209.91
2453.86	1219.02
2452.52	1131.21
2451.18	1209.27
2449.84	1181.12
2448.5	1203.26
2447.15	1204.91
2445.81	1160.02
2444.47	1187.74
2443.12	1148.44
2441.78	1155.68
2440.44	1116.41
2439.09	1185.04
2437.75	1145.78
2436.41	1164.17
2435.06	1188.14
2433.72	1132.16
2432.37	1197.02
2431.03	1191.23
2429.68	1144.57
2428.33	1207.53
2426.99	1147.88
2425.64	1207.11
2424.3	1260.74
2422.95	1175.13
2421.6	1072.83
2420.26	1202.55
2418.91	1196.77
2417.56	1189.14
2416.21	1120.31
2414.86	1164.62
2413.52	1168.12
2412.17	1212.41
2410.82	1164
2409.47	1208.28
2408.12	1158.04
2406.77	1165.24
2405.42	1226.16
2404.07	1170.39
2402.72	1190.55
2401.37	1145.91
2400.02	1197.54
2398.67	1114.05
2397.32	1158.26
2395.97	1111.81
2394.61	1126.41
2393.26	1111.42
2391.91	1103.83
2390.56	1229.34
2389.21	1182.92
2387.85	1116.18
2386.5	1119.68
2385.15	1147.19
2383.79	1130.37
2382.44	1187.42
2381.09	1102.28
2379.73	1135.31
2378.38	1124.04
2377.02	1142.29
2375.67	1180.84
2374.31	1151.12
2372.96	1173.05
2371.6	1145.18
2370.24	1196.6
2368.89	1107.91
2367.53	1174.06
2366.18	1135.16
2364.82	1168.12
2363.46	1127.39
2362.1	1130.88
2360.75	1134.36
2359.39	1196.76
2358.03	1098.98
2356.67	1113.52
2355.31	1122.52
2353.95	1078.17
2352.6	1096.37
2351.24	1059.39
2349.88	1097.82
2348.52	1136.24
2347.16	1141.56
2345.8	1163.41
2344.44	1109.91
2343.08	1093.18
2341.72	1092.99
2340.35	1180.96
2338.99	1110.97
2337.63	1037.33
2336.27	1116.08
2334.91	1093.86
2333.54	1110.19
2332.18	1122.83
2330.82	1080.44
2329.46	1153.62
2328.09	1059.89
2326.73	1103.71
2325.36	1063.19
2324	1114.31
2322.64	1106.79
2321.27	1117.59
2319.91	1091.74
2318.54	1093.38
2317.18	1148.12
2315.81	1043.57
2314.45	1114.77
2313.08	1110.91
2311.71	1092.42
2310.35	1068.44
2308.98	1084.72
2307.61	1084.53
2306.25	1066.05
2304.88	1060.38
2303.51	1030.94
2302.14	1081.93
2300.77	1120.11
2299.41	1070.59
2298.04	1117.89
2296.67	1093.95
2295.3	1080.98
2293.93	1060.7
2292.56	1036.79
2291.19	1093.18
2289.82	1089.34
2288.45	1140.23
2287.08	1072.54
2285.71	1103.35
2284.34	1055.75
2282.97	1119.37
2281.6	1168.38
2280.22	1091.64
2278.85	1085.98
2277.48	1091.25
2276.11	1091.06
2274.73	1094.51
2273.36	1072.46
2271.99	1035.86
2270.61	1106.67
2269.24	991.821
2267.87	1082.62
2266.49	1071.52
2265.12	1125.89
2263.74	1123.88
2262.37	1025.49
2260.99	1128.93
2259.62	983.324
2258.24	1106.72
2256.87	1070.19
2255.49	1048.2
2254.11	1046.2
2252.74	1060.54
2251.36	1071.25
2249.98	1061.98
2248.61	1056.35
2247.23	1047.09
2245.85	1101.33
2244.47	1104.77
2243.09	1071.92
2241.71	1075.36
2240.34	1053.41
2238.96	1067.73
2237.58	1091.1
2236.2	1080.04
2234.82	1070.79
2233.44	1106.83
2232.06	1030.56
2230.68	1046.68
2229.3	1079.08
2227.92	1093.37
2226.53	982.774
2225.15	1080.32
2223.77	995.09
2222.39	1079.93
2221.01	1074.32
2219.62	1054.23
2218.24	1073.94
2216.86	1048.44
2215.47	1057.29
2214.09	1039.03
2212.71	1123.76
2211.32	1094.66
2209.94	1105.3
2208.55	1067.19
2207.17	1018.25
2205.78	1046.95
2204.4	1017.89
2203.01	1050.19
2201.63	1100.52
2200.24	1037.19
2198.86	1035.2
2197.47	1042.23
2196.08	1038.44
2194.7	973.365
2193.31	1030.86
2191.92	1048.7
2190.53	1043.11
2189.15	1066.34
2187.76	1031.93
2186.37	1069.56
2184.98	1078.37
2183.59	1069.18
2182.2	1072.59
2180.81	1077.8
2179.42	1038.03
2178.03	976.69
2176.64	1052.05
2175.25	1023.09
2173.86	1080.44
2172.47	1035.31
2171.08	1036.92
2169.69	1029.55
2168.3	916.193
2166.91	1023.8
2165.51	975.129
2164.12	1018.05
2162.73	1048.38
2161.34	974.609
2159.94	1006.74
2158.55	1053.21
2157.16	1026.11
2155.76	1097.67
2154.37	1068.79
2152.97	1014.81
2151.58	985.945
2150.18	991.146
2148.79	1010.68
2147.39	996.169
2146	995.992
2144.6	968.949
2143.21	929.381
2141.81	1040.22
2140.41	1052.57
2139.02	1016.58
2137.62	1000.3
2136.22	1012.64
2134.82	1066.13
2133.43	1015.86
2132.03	1058.59
2130.63	988.68
2129.23	984.929
2127.83	1029.43
2126.43	1090
2125.03	950.458
2123.63	1002.09
2122.23	976.908
2120.83	951.736
2119.43	1005.13
2118.03	992.451
2116.63	990.49
2115.23	1049.2
2113.83	1013.33
2112.43	979.258
2111.03	954.116
2109.63	1057.36
2108.22	975.169
2106.82	1008.86
2105.42	1010.46
2104.01	1019.19
2102.61	997.633
2101.21	949.364
2099.8	977.688
2098.4	989.977
2097	1030.75
2095.59	1002.08
2094.19	1028.6
2092.78	1037.31
2091.38	1015.78
2089.97	912.437
2088.56	992.299
2087.16	1054.35
2085.75	1011.5
2084.34	1061.08
2082.94	991.59
2081.53	1035.83
2080.12	994.789
2078.72	896.927
2077.31	1038.83
2075.9	962.298
2074.49	978.103
2073.08	963.73
2071.67	1022.12
2070.27	984.676
2068.86	989.821
2067.45	950.626
2066.04	1019.61
2064.63	1024.75
2063.22	962.525
2061.81	978.304
2060.39	1017.11
2058.98	983.269
2057.57	956.524
2056.16	1020.11
2054.75	961.494
2053.34	994.959
2051.92	982.391
2050.51	960.978
2049.1	916.57
2047.69	999.555
2046.27	985.226
2044.86	946.143
2043.44	935.365
2042.03	988.234
2040.62	927.96
2039.2	964.906
2037.79	1040.71
2036.37	930.996
2034.96	997.948
2033.54	935.96
2032.12	918.137
2030.71	956.81
2029.29	963.698
2027.88	958.232
2026.46	901.6
2025.04	963.181
2023.62	971.827
2022.21	931.094
2020.79	953.848
2019.37	911.37
2017.95	897.107
2016.53	946.287
2015.11	974.308
2013.69	900.148
2012.28	961.63
2010.86	970.262
2009.44	917.271
2008.02	881.901
2006.59	936.302
2005.17	929.095
2003.75	983.468
2002.33	974.497
2000.91	932.113
1999.49	979.423
1998.07	928.263
1996.64	938.643
1995.22	961.322
1993.8	917.221
1992.38	960.977
1990.95	902.84
1989.53	906.191
1988.11	951.681
1986.68	919.91
1985.26	933.787
1983.83	891.502
1982.41	929.943
1980.98	929.776
1979.56	919.086
1978.13	913.66
1976.71	878.429
1975.28	906.32
1973.85	883.372
1972.43	932.281
1971	949.634
1969.57	868.882
1968.15	942.287
1966.72	868.57
1965.29	903.431
1963.86	899.768
1962.43	922.359
1961	906.444
1959.58	930.775
1958.15	883.378
1956.72	905.956
1955.29	933.771
1953.86	907.379
1952.43	914.208
1951	901.81
1949.57	962.806
1948.13	892.75
1946.7	915.298
1945.27	901.162
1943.84	911.476
1942.41	857.192
1940.98	893.694
1939.54	935.418
1938.11	907.331
1936.68	933.337
1935.24	898.284
1933.81	943.465
1932.38	908.423
1930.94	976.248
1929.51	918.554
1928.07	927.102
1926.64	907.769
1925.2	886.702
1923.77	848.224
1922.33	893.348
1920.9	893.187
1919.46	913.916
1918.03	858.056
1916.59	828.319
1915.15	878.626
1913.71	857.593
1912.28	881.788
1910.84	905.974
1909.4	893.641
1907.96	872.62
1906.52	853.346
1905.09	834.078
1903.65	856.513
1902.21	917.155
1900.77	830.154
1899.33	856.05
1897.89	831.591
1896.45	852.27
1895.01	862.53
1893.57	909.224
1892.13	914.264
1890.68	870.736
1889.24	868.845
1887.8	905.101
1886.36	887.601
1884.92	882.242
1883.47	876.884
1882.03	883.656
1880.59	855.779
1879.14	891.998
1877.7	876.251
1876.26	888.213
1874.81	900.171
1873.37	946.74
1871.92	934.456
1870.48	878.922
1869.03	883.953
1867.59	937.409
1866.14	814.465
1864.7	848.896
1863.25	826.271
1861.8	857.231
1860.36	870.901
1858.91	922.573
1857.46	936.226
1856.02	860.067
1854.57	842.644
1853.12	864.936
1851.67	904.48
1850.22	790.414
1848.77	904.153
1847.32	845.334
1845.87	864.155
1844.43	829.508
1842.98	882.809
1841.53	855.067
1840.07	870.425
1838.62	865.098
1837.17	849.435
1835.72	861.34
1834.27	807.791
1832.82	845.53
1831.37	898.752
1829.91	871.046
1828.46	812.371
1827.01	886.219
1825.56	849.928
1824.1	834.293
1822.65	847.901
1821.19	849.467
1819.74	869.944
1818.29	876.663
1816.83	840.413
1815.38	862.599
1813.92	891.649
1812.47	831.369
1811.01	829.501
1809.55	858.541
1808.1	842.935
1806.64	810.17
1805.19	928.437
1803.73	808.16
1802.27	866.342
1800.81	843.888
1799.36	862.599
1797.9	865.872
1796.44	826.286
1794.98	822.709
1793.52	855.12
1792.06	829.264
1790.6	806.845
1789.14	816.975
1787.68	816.827
1786.22	763.603
1784.76	826.802
1783.3	833.498
1781.84	764.9
1780.38	807.533
1778.92	819.361
1777.46	808.951
1775.99	829.323
1774.53	842.85
1773.07	880.303
1771.61	835.709
1770.14	840.683
1768.68	828.572
1767.22	804.509
1765.75	778.746
1764.29	833.244
1762.82	827.971
1761.36	843.183
1759.89	788.421
1758.43	788.278
1756.96	832.488
1755.5	844.277
1754.03	827.07
1752.57	862.725
1751.1	794.381
1749.63	836.847
1748.17	788.981
1746.7	816.098
1745.23	809.136
1743.76	846.458
1742.29	800.328
1740.83	769.537
1739.36	786.42
1737.89	823.719
1736.42	832.077
1734.95	813.212
1733.48	799.457
1732.01	845.229
1730.54	773.661
1729.07	810.921
1727.6	856.667
1726.13	803.829
1724.66	764.603
1723.18	815.429
1721.71	847.552
1720.24	806.641
1718.77	777.631
1717.3	806.348
1715.82	745.1
1714.35	756.843
1712.88	792.335
1711.4	753.175
1709.93	776.783
1708.45	795.295
1706.98	825.667
1705.5	744.152
1704.03	786.387
1702.55	811.661
1701.08	781.018
1699.6	860.488
1698.13	748.556
1696.65	811.071
1695.17	800.765
1693.7	780.308
1692.22	819.09
1690.74	768.18
1689.26	798.491
1687.79	798.346
1686.31	803.274
1684.83	750.713
1683.35	781.005
1681.87	745.369
1680.39	785.79
1678.91	785.647
1677.43	765.233
1675.95	751.582
1674.47	748.068
1672.99	746.243
1671.51	727.539
1670.03	801.666
1668.55	740.773
1667.06	808.122
1665.58	737.13
1664.1	772.411
1662.62	785.76
1661.13	751.899
1659.65	751.762
1658.17	763.422
1656.68	776.763
1655.2	739.559
1653.72	815.219
1652.23	749.393
1650.75	781.247
1649.26	764.271
1647.78	811.258
1646.29	774.089
1644.8	800.868
1643.32	827.636
1641.83	761.892
1640.34	778.569
1638.86	810.371
1637.37	806.861
1635.88	821.84
1634.4	754.476
1632.91	804.739
1631.42	797.874
1629.93	796.049
1628.44	851.314
1626.95	825.977
1625.46	810.719
1623.97	827.353
1622.48	755.053
1620.99	753.237
1619.5	778.259
1618.01	776.44
1616.52	806.478
1615.03	804.654
1613.54	765.958
1612.05	767.494
1610.55	784.108
1609.06	758.838
1607.57	829.042
1606.08	800.423
1604.58	857.201
1603.09	810.174
1601.6	776.554
1600.1	801.512
1598.61	885.015
1597.11	777.801
1595.62	888.036
1594.12	882.857
1592.63	887.711
1591.13	914.292
1589.64	937.521
1588.14	957.4
1586.64	908.779
1585.15	888.57
1583.65	834.969
1582.15	856.522
1580.65	883.074
1579.16	856.208
1577.66	817.671
1576.16	800.837
1574.66	774.001
1573.16	775.527
1571.66	770.383
1570.16	813.589
1568.66	840.11
1567.16	771.626
1565.66	804.81
1564.16	711.369
1562.66	751.214
1561.16	769.396
1559.66	689.332
1558.16	764.12
1556.65	725.697
1555.15	722.236
1553.65	715.449
1552.15	743.597
1550.64	756.767
1549.14	665.168
1547.64	809.693
1546.13	797.909
1544.63	679.76
1543.12	782.661
1541.62	707.755
1540.11	730.88
1538.61	675.94
1537.1	830.241
1535.6	707.236
1534.09	788.44
1532.59	723.572
1531.08	756.624
1529.57	686.809
1528.06	769.616
1526.56	749.575
1525.05	726.225
1523.54	686.305
1522.03	701.096
1520.52	689.368
1519.01	677.643
1517.51	690.771
1516	654.208
1514.49	670.647
1512.98	740.059
1511.47	720.06
1509.96	718.273
1508.44	736.342
1506.93	741.17
1505.42	701.336
1503.91	755.782
1502.4	682.89
1500.89	659.62
1499.37	740.49
1497.86	674.251
1496.35	680.736
1494.83	652.527
1493.32	733.339
1491.81	686.966
1490.29	680.236
1488.78	727.982
1487.26	679.986
1485.75	716.164
1484.23	664.887
1482.72	659.816
1481.2	717.418
1479.69	713.988
1478.17	675.938
1476.65	682.407
1475.14	616.361
1473.62	647.554
1472.1	680.384
1470.58	676.964
1469.07	696.601
1467.55	668.482
1466.03	707.868
1464.51	696.217
1462.99	719.127
1461.47	674.572
1459.95	649.773
1458.43	698.994
1456.91	679.132
1455.39	672.431
1453.87	695.32
1452.35	675.47
1450.83	683.562
1449.3	647.293
1447.78	683.31
1446.26	656.908
1444.74	642.009
1443.21	630.399
1441.69	618.794
1440.17	684.322
1438.64	662.866
1437.12	708.677
1435.6	669.182
1434.07	718.255
1432.55	616.47
1431.02	667.173
1429.5	675.245
1427.97	647.263
1426.45	627.484
1424.92	660.129
1423.39	678.022
1421.87	650.061
1420.34	671.224
1418.81	656.369
1417.28	644.792
1415.76	664.308
1414.23	714.899
1412.7	680.419
1411.17	649.222
1409.64	694.883
1408.11	622.827
1406.58	655.4
1405.05	666.718
1403.52	702.539
1401.99	681.174
1400.46	689.214
1398.93	653.163
1397.4	638.349
1395.87	659.451
1394.34	662.593
1392.8	616.783
1391.27	623.195
1389.74	629.604
1388.21	600.133
1386.67	624.48
1385.14	617.844
1383.6	624.249
1382.07	659.985
1380.54	661.492
1379	654.854
1377.47	625.417
1375.93	610.645
1374.4	649.607
1372.86	616.931
1371.32	650.994
1369.79	663.891
1368.25	658.888
1366.71	671.778
1365.18	639.129
1363.64	668.278
1362.1	642.144
1360.56	707.04
1359.02	697.159
1357.49	719.777
1355.95	641.669
1354.41	680.53
1352.87	727.497
1351.33	690.02
1349.79	650.933
1348.25	757.929
1346.71	717.222
1345.17	661.929
1343.62	653.696
1342.08	642.222
1340.54	697.233
1339	679.271
1337.46	706.7
1335.91	643.367
1334.37	617.324
1332.83	596.15
1331.28	670.544
1329.74	659.084
1328.2	595.818
1326.65	655.603
1325.11	605.309
1323.56	644.032
1322.02	666.563
1320.47	679.38
1318.93	562.811
1317.38	606.365
1315.83	619.186
1314.29	577.045
1312.74	583.403
1311.19	599.452
1309.65	536.337
1308.1	575.002
1306.55	592.659
1305	589.32
1303.45	587.597
1301.9	556.822
1300.35	587.379
1298.8	595.336
1297.25	548.447
1295.7	570.924
1294.15	598.23
1292.6	622.302
1291.05	544.816
1289.5	551.161
1287.95	544.614
1286.4	525.181
1284.85	534.747
1283.29	603.895
1281.74	536.159
1280.19	561.816
1278.63	593.901
1277.08	555.171
1275.53	614.596
1273.97	566.224
1272.42	599.893
1270.86	604.606
1269.31	535.363
1267.75	572.233
1266.2	536.771
1264.64	607.37
1263.09	594.405
1261.53	560.565
1259.97	536.372
1258.42	573.201
1256.86	577.91
1255.3	558.543
1253.74	519.926
1252.18	486.137
1250.63	577.481
1249.07	558.128
1247.51	550.006
1245.95	548.301
1244.39	559.419
1242.83	525.66
1241.27	480.697
1239.71	547.893
1238.15	533.375
1236.59	512.457
1235.02	521.969
1233.46	501.061
1231.9	552.185
1230.34	531.279
1228.78	524.78
1227.21	551.876
1225.65	601.353
1224.09	566.062
1222.52	573.951
1220.96	548.268
1219.39	575.335
1217.83	496.933
1216.27	552.755
1214.7	583
1213.13	562.131
1211.57	557.236
1210	541.168
1208.44	593.738
1206.87	528.201
1205.3	528.102
1203.74	459.411
1202.17	547.044
1200.6	527.807
1199.03	510.171
1197.46	502.106
1195.9	529.105
1194.33	474.831
1192.76	516.163
1191.19	506.51
1189.62	503.231
1188.05	525.428
1186.48	460.061
1184.91	545.923
1183.34	512.403
1181.76	550.492
1180.19	478.807
1178.62	483.489
1177.05	540.643
1175.48	480.129
1173.9	495.934
1172.33	478.36
1170.76	490.982
1169.18	482.947
1167.61	482.857
1166.03	547.877
1164.46	530.31
1162.88	495.286
1161.31	469.799
1159.73	490.341
1158.16	528.327
1156.58	512.365
1155.01	543.989
1153.43	456.675
1151.85	469.273
1150.28	464.43
1148.7	491.285
1147.12	560.911
1145.54	552.885
1143.96	435.573
1142.39	481.416
1140.81	459.159
1139.23	495.483
1137.65	458.988
1136.07	468.396
1134.49	431.92
1132.91	507.767
1131.33	438.085
1129.75	455.396
1128.16	469.539
1126.58	450.484
1125	549.962
1123.42	455.055
1121.84	472.348
1120.25	494.372
1118.67	448.483
1117.09	481.556
1115.5	449.894
1113.92	501.893
1112.33	501.799
1110.75	444.908
1109.16	468.486
1107.58	465.244
1105.99	450.966
1104.41	472.952
1102.82	446.068
1101.24	505.869
1099.65	401.784
1098.06	453.694
1096.47	436.284
1094.89	450.375
1093.3	467.609
1091.71	454.928
1090.12	435.957
1088.53	479.935
1086.94	475.125
1085.36	445.149
1083.77	443.493
1082.18	473.285
1080.59	457.476
1079	446.387
1077.4	388.159
1075.81	443.078
1074.22	501.118
1072.63	452.335
1071.04	453.821
1069.45	431.755
1067.85	470.917
1066.26	425.315
1064.67	451.911
1063.07	450.257
1061.48	425.076
1059.89	486.158
1058.29	497.042
1056.7	401.322
1055.1	459.239
1053.51	535.939
1051.91	432.431
1050.31	444.882
1048.72	454.196
1047.12	441.583
1045.52	444.631
1043.93	422.634
1042.33	450.724
1040.73	463.157
1039.13	483.408
1037.54	445.778
1035.94	441.003
1034.34	458.119
1032.74	478.355
1031.14	464.198
1029.54	460.986
1027.94	490.584
1026.34	481.12
1024.74	456.041
1023.14	485.623
1021.54	466.797
1019.93	429.248
1018.33	483.789
1016.73	430.647
1015.13	496.087
1013.53	494.434
1011.92	511.494
1010.32	447.473
1008.71	464.537
1007.11	509.647
1005.51	440.988
1003.9	464.274
1002.3	484.437
1000.69	453.198
999.086	506.054