File: Akinwande-lab-measurements/raman/data/Raman 25-12-11 finished-wafer-1/d4_1.txt
2999.69	902.045
2998.44	962.182
2997.19	925.942
2995.94	907.75
2994.7	931.637
2993.45	991.574
2992.2	951.348
2990.95	913.138
2989.7	945.017
2988.45	910.825
2987.2	914.673
2985.96	928.525
2984.71	980.387
2983.46	932.209
2982.21	938.051
2980.96	953.889
2979.71	957.725
2978.45	891.592
2977.2	961.396
2975.95	965.229
2974.7	907.121
2973.45	930.938
2972.2	988.704
2970.95	984.541
2969.69	914.489
2968.44	1008.16
2967.19	936.133
2965.94	969.9
2964.68	935.813
2963.43	913.709
2962.18	1029.24
2960.92	975.221
2959.67	1066.78
2958.42	982.862
2957.16	904.956
2955.91	974.555
2954.65	948.484
2953.4	996.137
2952.14	978.04
2950.89	963.931
2949.63	947.837
2948.38	957.629
2947.12	937.56
2945.86	923.468
2944.61	925.3
2943.35	962.944
2942.1	921.006
2940.84	990.459
2939.58	998.244
2938.32	970.239
2937.07	930.316
2935.81	952.02
2934.55	935.959
2933.29	917.918
2932.03	957.491
2930.77	937.466
2929.52	913.476
2928.26	958.985
2927	956.836
2925.74	938.81
2924.48	873.162
2923.22	978.171
2921.96	918.49
2920.7	950.068
2919.44	977.669
2918.18	910.088
2916.91	921.827
2915.65	862.207
2914.39	929.438
2913.13	968.907
2911.87	990.533
2910.61	895.289
2909.34	903.057
2908.08	938.544
2906.82	954.221
2905.56	961.975
2904.29	953.894
2903.03	898.327
2901.76	892.238
2900.5	941.536
2899.24	921.598
2897.97	905.622
2896.71	994.432
2895.44	867.755
2894.18	917.014
2892.91	968.233
2891.65	873.236
2890.38	892.839
2889.12	989.46
2887.85	941.899
2886.58	918.046
2885.32	888.28
2884.05	939.442
2882.78	935.334
2881.52	791.149
2880.25	893.589
2878.98	976.271
2877.71	918.918
2876.45	928.618
2875.18	952.114
2873.91	902.678
2872.64	908.435
2871.37	967.386
2870.1	947.521
2868.83	933.572
2867.56	935.381
2866.29	846.621
2865.02	858.287
2863.75	928.995
2862.48	854.057
2861.21	875.553
2859.94	950.156
2858.67	887.054
2857.4	951.797
2856.13	910.343
2854.86	857.109
2853.58	839.273
2852.31	927.561
2851.04	899.895
2849.77	868.308
2848.49	887.801
2847.22	932.816
2845.95	891.423
2844.67	914.828
2843.4	873.451
2842.13	908.626
2840.85	871.189
2839.58	922.046
2838.3	927.772
2837.03	886.429
2835.75	819.61
2834.48	874.362
2833.2	915.374
2831.93	913.257
2830.65	920.938
2829.38	909.025
2828.1	938.251
2826.82	887.17
2825.55	906.599
2824.27	892.739
2822.99	894.542
2821.71	878.732
2820.44	954.894
2819.16	821.694
2817.88	921.313
2816.6	905.508
2815.32	876.021
2814.05	889.556
2812.77	869.856
2811.49	955.7
2810.21	883.235
2808.93	912.389
2807.65	890.745
2806.37	896.451
2805.09	880.675
2803.81	901.999
2802.53	903.796
2801.25	897.786
2799.97	895.68
2798.68	946.253
2797.4	850.505
2796.12	901.068
2794.84	893.113
2793.56	906.607
2792.27	896.704
2790.99	925.785
2789.71	886.652
2788.42	900.138
2787.14	921.411
2785.86	919.305
2784.57	880.2
2783.29	880.048
2782.01	920.777
2780.72	901.155
2779.44	889.323
2778.15	896.953
2776.87	939.596
2775.58	857.744
2774.3	902.323
2773.01	873.003
2771.72	923.396
2770.44	876.589
2769.15	853.118
2767.86	829.655
2766.58	891.677
2765.29	907.062
2764	943.803
2762.72	873.741
2761.43	966.773
2760.14	805.506
2758.85	912.102
2757.56	902.243
2756.27	907.908
2754.99	888.355
2753.7	899.837
2752.41	901.621
2751.12	880.14
2749.83	845.099
2748.54	910.844
2747.25	862.246
2745.96	838.85
2744.67	887.129
2743.38	888.913
2742.08	898.441
2740.79	882.798
2739.5	880.71
2738.21	901.846
2736.92	926.845
2735.63	876.384
2734.33	912.985
2733.04	922.497
2731.75	918.47
2730.45	864.18
2729.16	943.281
2727.87	856.151
2726.57	915.903
2725.28	908.017
2723.99	909.792
2722.69	896.116
2721.4	909.478
2720.1	857.194
2718.81	907.233
2717.51	924.446
2716.21	937.794
2714.92	982.005
2713.62	958.688
2712.33	946.95
2711.03	923.647
2709.73	1002.53
2708.44	969.591
2707.14	1017.61
2705.84	930.716
2704.54	1015.33
2703.25	995.888
2701.95	980.308
2700.65	1049.46
2699.35	1039.65
2698.05	1031.77
2696.75	968.082
2695.45	1010.25
2694.16	969.671
2692.86	917.566
2691.56	1000.11
2690.26	1036.47
2688.96	1040.14
2687.66	995.745
2686.35	1032.09
2685.05	1028.07
2683.75	945.274
2682.45	970.083
2681.15	991.042
2679.85	1023.52
2678.55	977.259
2677.24	963.652
2675.94	950.05
2674.64	926.858
2673.33	943.965
2672.03	915.027
2670.73	934.048
2669.42	1006.76
2668.12	906.883
2666.82	939.314
2665.51	900.818
2664.21	915.993
2662.9	973.313
2661.6	948.241
2660.29	886.787
2658.99	831.099
2657.68	882.65
2656.37	982.041
2655.07	815.355
2653.76	822.868
2652.46	853.339
2651.15	857.017
2649.84	897.034
2648.53	868.193
2647.23	845.099
2645.92	885.097
2644.61	850.54
2643.3	911.544
2641.99	875.083
2640.69	869.2
2639.38	895.79
2638.07	834.525
2636.76	780.918
2635.45	872.415
2634.14	891.35
2632.83	872.112
2631.52	847.157
2630.21	883.256
2628.9	846.863
2627.59	848.623
2626.28	795.088
2624.96	836.89
2623.65	892.019
2622.34	844.222
2621.03	836.454
2619.72	851.549
2618.4	864.734
2617.09	834.114
2615.78	854.913
2614.46	818.594
2613.15	871.747
2611.84	856.371
2610.52	827.681
2609.21	779.978
2607.89	842.61
2606.58	815.839
2605.27	893.655
2603.95	851.676
2602.63	838.223
2601.32	847.579
2600	807.53
2598.69	818.788
2597.37	858.534
2596.06	883.072
2594.74	860.134
2593.42	795.438
2592.1	848.446
2590.79	882.458
2589.47	872.817
2588.15	800.576
2586.83	781.469
2585.52	815.469
2584.2	853.249
2582.88	798.123
2581.56	858.638
2580.24	754.257
2578.92	824.233
2577.6	835.457
2576.28	878.876
2574.96	842.741
2573.64	819.873
2572.32	747.791
2571	787.409
2569.68	870.542
2568.36	813.625
2567.04	847.536
2565.71	815.233
2564.39	858.588
2563.07	813.059
2561.75	850.727
2560.42	814.666
2559.1	810.744
2557.78	808.713
2556.46	801.015
2555.13	883.986
2553.81	798.848
2552.48	779.827
2551.16	834.439
2549.84	807.868
2548.51	822.825
2547.19	837.776
2545.86	822.538
2544.54	837.484
2543.21	771.332
2541.88	797.595
2540.56	840.817
2539.23	872.714
2537.9	823.562
2536.58	876.178
2535.25	800.668
2533.92	785.459
2532.6	809.805
2531.27	745.644
2529.94	833.996
2528.61	809.381
2527.28	814.886
2525.96	769.584
2524.63	837.177
2523.3	795.649
2521.97	803.033
2520.64	793.491
2519.31	806.513
2517.98	744.343
2516.65	905.835
2515.32	800.453
2513.99	775.891
2512.66	779.512
2511.33	816.936
2509.99	854.347
2508.66	799.755
2507.33	748.935
2506	797.598
2504.67	776.819
2503.33	761.675
2502	842.198
2500.67	842.05
2499.33	828.778
2498	749.894
2496.67	792.874
2495.33	777.743
2494	786.976
2492.66	820.56
2491.33	728.635
2489.99	814.655
2488.66	851.961
2487.32	840.58
2485.99	831.074
2484.65	782.27
2483.32	761.551
2481.98	776.384
2480.64	851.068
2479.31	815.386
2477.97	768.498
2476.63	770.233
2475.29	814.958
2473.96	809.209
2472.62	812.804
2471.28	728.594
2469.94	711.655
2468.6	773.159
2467.26	815.97
2465.93	797.158
2464.59	808.218
2463.25	802.478
2461.91	806.069
2460.57	763.02
2459.23	794.595
2457.89	796.321
2456.55	803.64
2455.2	814.685
2453.86	795.903
2452.52	695.128
2451.18	808.667
2449.84	793.622
2448.5	834.461
2447.15	793.344
2445.81	796.928
2444.47	720.461
2443.12	805.956
2441.78	790.927
2440.44	790.788
2439.09	794.37
2437.75	786.791
2436.41	810.829
2435.06	832.999
2433.72	773.364
2432.37	765.793
2431.03	802.827
2429.68	785.963
2428.33	793.256
2426.99	765.256
2425.64	787.407
2424.3	751.99
2422.95	761.14
2421.6	759.151
2420.26	809.124
2418.91	771.873
2417.56	751.331
2416.21	782.731
2414.86	791.866
2413.52	723.123
2412.17	819.395
2410.82	746.964
2409.47	804.282
2408.12	772.642
2406.77	789.179
2405.42	783.484
2404.07	787.05
2402.72	825.795
2401.37	784.923
2400.02	797.741
2398.67	771.693
2397.32	801.162
2395.97	776.972
2394.61	773.136
2393.26	743.412
2391.91	710
2390.56	757.939
2389.21	707.902
2387.85	785.393
2386.5	787.102
2385.15	836.842
2383.79	799.755
2382.44	827.314
2381.09	709.002
2379.73	771.642
2378.38	758.587
2377.02	763.99
2375.67	809.982
2374.31	760.031
2372.96	796.786
2371.6	733.947
2370.24	755.943
2368.89	759.497
2367.53	751.991
2366.18	827.413
2364.82	740.671
2363.46	766.331
2362.1	710.942
2360.75	721.865
2359.39	813.797
2358.03	712.407
2356.67	714.122
2355.31	745.28
2353.95	776.427
2352.6	770.771
2351.24	763.279
2349.88	731.883
2348.52	774.041
2347.16	744.493
2345.8	755.389
2344.44	747.906
2343.08	709.191
2341.72	716.414
2340.35	793.427
2338.99	712.489
2337.63	787.639
2336.27	796.679
2334.91	770.843
2333.54	794.563
2332.18	772.406
2330.82	733.749
2329.46	781.304
2328.09	748.16
2326.73	724.194
2325.36	738.73
2324	692.781
2322.64	718.313
2321.27	751.165
2319.91	712.565
2318.54	778.372
2317.18	673.859
2315.81	772.605
2314.45	766.977
2313.08	766.841
2311.71	763.046
2310.35	768.4
2308.98	799.361
2307.61	720.578
2306.25	731.423
2304.88	797.11
2303.51	720.197
2302.14	798.656
2300.77	730.906
2299.41	696.065
2298.04	686.809
2296.67	748.782
2295.3	739.52
2293.93	799.636
2292.56	766.639
2291.19	722.703
2289.82	738.998
2288.45	749.814
2287.08	680.368
2285.71	755.02
2284.34	733.006
2282.97	692.768
2281.6	674.419
2280.22	679.767
2278.85	748.887
2277.48	708.675
2276.11	741.336
2274.73	686.571
2273.36	759.282
2271.99	762.789
2270.61	717.15
2269.24	771.619
2267.87	749.648
2266.49	780.442
2265.12	718.462
2263.74	732.883
2262.37	723.662
2260.99	758.075
2259.62	703.413
2258.24	766.893
2256.87	726.784
2255.49	755.722
2254.11	719.262
2252.74	704.607
2251.36	751.689
2249.98	775.156
2248.61	760.498
2247.23	718.626
2245.85	776.559
2244.47	756.467
2243.09	672.9
2241.71	732.624
2240.34	687.167
2238.96	716.05
2237.58	775.734
2236.2	728.481
2234.82	650.444
2233.44	722.789
2232.06	726.283
2230.68	697.181
2229.3	675.331
2227.92	722.277
2226.53	745.677
2225.15	685.829
2223.77	705.609
2222.39	633.127
2221.01	687.273
2219.62	759.483
2218.24	712.341
2216.86	686.908
2215.47	731.969
2214.09	692.085
2212.71	710.029
2211.32	715.323
2209.94	717.002
2208.55	778.269
2207.17	707.72
2205.78	745.502
2204.4	694.836
2203.01	705.539
2201.63	734.28
2200.24	728.739
2198.86	723.199
2197.47	737.496
2196.08	703.111
2194.7	710.196
2193.31	648.795
2191.92	693.727
2190.53	720.628
2189.15	698.885
2187.76	722.173
2186.37	713.041
2184.98	738.119
2183.59	669.589
2182.2	723.46
2180.81	741.324
2179.42	687.222
2178.03	730.269
2176.64	773.3
2175.25	746.192
2173.86	675.948
2172.47	690.207
2171.08	699.07
2169.69	668.4
2168.3	759.901
2166.91	702.289
2165.51	684.206
2164.12	707.426
2162.73	703.71
2161.34	705.38
2159.94	658.597
2158.55	717.689
2157.16	688.859
2155.76	713.846
2154.37	720.892
2152.97	738.694
2151.58	677.613
2150.18	684.662
2148.79	747.26
2147.39	688.002
2146	711.167
2144.6	693.13
2143.21	727.03
2141.81	687.512
2140.41	676.649
2139.02	696.216
2137.62	628.093
2136.22	703.125
2134.82	660.068
2133.43	633.124
2132.03	700.961
2130.63	654.352
2129.23	659.598
2127.83	741.693
2126.43	698.675
2125.03	703.91
2123.63	746.655
2122.23	680.443
2120.83	667.822
2119.43	671.274
2118.03	687.219
2116.63	706.728
2115.23	756.564
2113.83	710.044
2112.43	620.732
2111.03	720.491
2109.63	640.124
2108.22	659.621
2106.82	689.805
2105.42	714.631
2104.01	652.141
2102.61	710.814
2101.21	716.03
2099.8	671.381
2098.4	706.872
2097	662.241
2095.59	678.142
2094.19	658.445
2092.78	638.756
2091.38	713.358
2089.97	656.315
2088.56	689.985
2087.16	640.078
2085.75	680.851
2084.34	702.058
2082.94	687.716
2081.53	614.747
2080.12	673.259
2078.72	699.78
2077.31	685.449
2075.9	639.165
2074.49	674.554
2073.08	654.91
2071.67	677.862
2070.27	661.773
2068.86	679.394
2067.45	663.31
2066.04	686.244
2064.63	648.89
2063.22	687.771
2061.81	680.559
2060.39	659.174
2058.98	650.198
2057.57	641.225
2056.16	649.966
2054.75	697.658
2053.34	685.141
2051.92	638.997
2050.51	628.264
2049.1	721.932
2047.69	661.653
2046.27	698.679
2044.86	661.416
2043.44	641.848
2042.03	694.769
2040.62	687.574
2039.2	652.107
2037.79	685.562
2036.37	696.039
2034.96	627.029
2033.54	632.215
2032.12	688.602
2030.71	642.581
2029.29	658.351
2027.88	656.468
2026.46	647.529
2025.04	666.818
2023.62	597.912
2022.21	671.869
2020.79	680.565
2019.37	599.354
2017.95	613.346
2016.53	667.864
2015.11	660.697
2013.69	646.486
2012.28	692.162
2010.86	700.843
2009.44	625.012
2008.02	624.9
2006.59	640.627
2005.17	644.032
2003.75	652.713
2002.33	585.754
2000.91	610.27
1999.49	615.436
1998.07	648.729
1996.64	664.433
1995.22	616.863
1993.8	623.781
1992.38	702.725
1990.95	602.479
1989.53	574.272
1988.11	663.718
1986.68	637.266
1985.26	593.271
1983.83	615.978
1982.41	621.132
1980.98	599.969
1979.56	591.091
1978.13	620.798
1976.71	557.566
1975.28	611.81
1973.85	597.678
1972.43	655.4
1971	595.711
1969.57	634.144
1968.15	588.492
1966.72	647.925
1965.29	590.031
1963.86	605.68
1962.43	605.571
1961	556.466
1959.58	647.344
1958.15	629.735
1956.72	633.12
1955.29	585.793
1953.86	617.157
1952.43	632.779
1951	648.394
1949.57	620.32
1948.13	602.737
1946.7	620.097
1945.27	665.393
1943.84	619.874
1942.41	654.679
1940.98	626.633
1939.54	603.833
1938.11	626.408
1936.68	553.024
1935.24	622.694
1933.81	641.765
1932.38	638.163
1930.94	604.925
1929.51	583.9
1928.07	606.45
1926.64	620.28
1925.2	634.105
1923.77	576.514
1922.33	632.135
1920.9	605.905
1919.46	567.498
1918.03	614.389
1916.59	563.814
1915.15	650.705
1913.71	582.746
1912.28	587.859
1910.84	678.176
1909.4	648.498
1907.96	634.475
1906.52	589.173
1905.09	573.428
1903.65	642.819
1902.21	672.233
1900.77	583.539
1899.33	614.689
1897.89	602.426
1896.45	640.505
1895.01	610.886
1893.57	581.278
1892.13	598.522
1890.68	575.865
1889.24	603.509
1887.8	592.997
1886.36	622.361
1884.92	582.383
1883.47	606.54
1882.03	613.361
1880.59	611.518
1879.14	595.82
1877.7	604.371
1876.26	557.514
1874.81	611.078
1873.37	617.89
1871.92	572.787
1870.48	584.795
1869.03	622.746
1867.59	594.961
1866.14	603.5
1864.7	632.782
1863.25	627.482
1861.8	620.456
1860.36	597.88
1858.91	582.223
1857.46	611.483
1856.02	599.284
1854.57	583.635
1853.12	643.954
1851.67	557.532
1850.22	529.819
1848.77	565.959
1847.32	567.582
1845.87	588.177
1844.43	619.113
1842.98	546.583
1841.53	594.754
1840.07	572.24
1838.62	592.816
1837.17	635.784
1835.72	604.661
1834.27	599.384
1832.82	547.614
1831.37	566.455
1829.91	573.238
1828.46	557.644
1827.01	550.66
1825.56	610.778
1824.1	583.145
1822.65	517.684
1821.19	619.045
1819.74	613.775
1818.29	572.409
1816.83	574.024
1815.38	591.104
1813.92	621.921
1812.47	523.9
1811.01	539.261
1809.55	583.808
1808.1	594.003
1806.64	549.267
1805.19	617.814
1803.73	581.67
1802.27	564.409
1800.81	538.579
1799.36	579.639
1797.9	557.244
1796.44	593.143
1794.98	574.182
1793.52	601.497
1792.06	524.287
1790.6	591.001
1789.14	563.49
1787.68	570.238
1786.22	558.15
1784.76	580.302
1783.3	530.563
1781.84	576.669
1780.38	547.48
1778.92	530.275
1777.46	545.571
1775.99	562.572
1774.53	543.664
1773.07	577.752
1771.61	582.774
1770.14	553.621
1768.68	553.52
1767.22	596.122
1765.75	558.443
1764.29	551.512
1762.82	563.362
1761.36	585.449
1759.89	598.995
1758.43	605.711
1756.96	503.246
1755.5	561.145
1754.03	518.411
1752.57	552.417
1751.1	538.679
1749.63	577.782
1748.17	552.116
1746.7	563.942
1745.23	596.205
1743.76	507.534
1742.29	529.579
1740.83	534.59
1739.36	505.556
1737.89	537.8
1736.42	544.509
1734.95	542.708
1733.48	556.218
1732.01	569.722
1730.54	571.319
1729.07	567.815
1727.6	581.31
1726.13	559.112
1724.66	504.638
1723.18	569.101
1721.71	533.329
1720.24	575.687
1718.77	533.135
1717.3	514.365
1715.82	527.85
1714.35	536.239
1712.88	524.265
1711.4	532.651
1709.93	513.898
1708.45	590.112
1706.98	542.533
1705.5	550.91
1704.03	538.946
1702.55	557.488
1701.08	550.609
1699.6	589.468
1698.13	516.538
1696.65	518.137
1695.17	524.815
1693.7	495.944
1692.22	504.316
1690.74	517.76
1689.26	556.575
1687.79	509.114
1686.31	559.755
1684.83	530.909
1683.35	483.479
1681.87	550.998
1680.39	544.138
1678.91	564.314
1677.43	562.522
1675.95	510.062
1674.47	535.299
1672.99	520.006
1671.51	504.72
1670.03	511.378
1668.55	558.533
1667.06	558.431
1665.58	544.835
1664.1	543.049
1662.62	527.775
1661.13	541.165
1659.65	541.067
1658.17	559.506
1656.68	537.5
1655.2	555.933
1653.72	547.41
1652.23	562.466
1650.75	515.219
1649.26	540.376
1647.78	521.764
1646.29	541.862
1644.8	555.223
1643.32	523.16
1641.83	501.201
1640.34	543.148
1638.86	574.993
1637.37	621.955
1635.88	536.129
1634.4	596.523
1632.91	584.654
1631.42	520.717
1629.93	589.479
1628.44	594.409
1626.95	644.665
1625.46	604.263
1623.97	641.073
1622.48	630.888
1620.99	610.642
1619.5	558.535
1618.01	586.941
1616.52	573.421
1615.03	561.582
1613.54	568.183
1612.05	578.134
1610.55	629.967
1609.06	536.044
1607.57	597.915
1606.08	597.806
1604.58	596.022
1603.09	600.935
1601.6	594.131
1600.1	629.162
1598.61	590.568
1597.11	685.803
1595.62	628.816
1594.12	628.701
1592.63	650.32
1591.13	641.843
1589.64	656.766
1588.14	641.608
1586.64	608.08
1585.15	641.374
1583.65	597.838
1582.15	611.086
1580.65	542.531
1579.16	615.869
1577.66	567.364
1576.16	575.602
1574.66	573.828
1573.16	500.34
1571.66	576.953
1570.16	543.504
1568.66	521.735
1567.16	471.642
1565.66	501.549
1564.16	566.429
1562.66	513.024
1561.16	522.923
1559.66	521.162
1558.16	546.038
1556.65	519.306
1555.15	537.517
1553.65	485.84
1552.15	489.078
1550.64	517.263
1549.14	505.527
1547.64	507.097
1546.13	488.719
1544.63	520.208
1543.12	500.172
1541.62	475.159
1540.11	471.75
1538.61	474.985
1537.1	508.108
1535.6	486.432
1534.09	488.003
1532.59	545.998
1531.08	530.965
1529.57	489.393
1528.06	474.375
1526.56	475.947
1525.05	530.575
1523.54	497.323
1522.03	469.055
1520.52	510.397
1519.01	533.499
1517.51	508.553
1516	510.116
1514.49	430.539
1512.98	488.406
1511.47	501.559
1509.96	474.987
1508.44	493.101
1506.93	459.923
1505.42	511.115
1503.91	461.407
1502.4	491.085
1500.89	494.302
1499.37	527.268
1497.86	543.697
1496.35	485.768
1494.83	515.414
1493.32	488.893
1491.81	445.867
1490.29	458.994
1488.78	478.719
1487.26	448.923
1485.75	457.091
1484.23	501.552
1482.72	514.657
1481.2	476.629
1479.69	428.723
1478.17	469.86
1476.65	524.168
1475.14	486.167
1473.62	482.782
1472.1	461.277
1470.58	502.37
1469.07	484.163
1467.55	462.669
1466.03	477.4
1464.51	469.082
1462.99	457.477
1461.47	463.974
1459.95	491.853
1458.43	539.459
1456.91	478.517
1455.39	483.361
1453.87	440.534
1452.35	430.592
1450.83	469.949
1449.3	507.648
1447.78	454.993
1446.26	443.413
1444.74	464.677
1443.21	476.083
1441.69	449.733
1440.17	462.779
1438.64	416.752
1437.12	501.979
1435.6	480.565
1434.07	465.718
1432.55	486.946
1431.02	511.445
1429.5	452.348
1427.97	470.29
1426.45	432.522
1424.92	471.755
1423.39	461.841
1421.87	469.943
1420.34	469.857
1418.81	410.844
1417.28	471.32
1415.76	446.69
1414.23	476.054
1412.7	438.347
1411.17	441.536
1409.64	461.075
1408.11	475.703
1406.58	467.443
1405.05	467.356
1403.52	442.763
1401.99	462.283
1400.46	449.132
1398.93	475.176
1397.4	437.538
1395.87	442.354
1394.34	478.177
1392.8	456.876
1391.27	515.522
1389.74	515.427
1388.21	459.885
1386.67	533.172
1385.14	487.428
1383.6	484.078
1382.07	457.915
1380.54	475.753
1379	467.52
1377.47	478.835
1375.93	498.287
1374.4	514.475
1372.86	511.125
1371.32	556.6
1369.79	592.295
1368.25	554.767
1366.71	533.519
1365.18	562.693
1363.64	569.093
1362.1	661.652
1360.56	629.022
1359.02	651.656
1357.49	674.283
1355.95	661.162
1354.41	685.403
1352.87	693.395
1351.33	715.997
1349.79	706.125
1348.25	696.256
1346.71	660.428
1345.17	673.285
1343.62	648.829
1342.08	634.113
1340.54	619.403
1339	590.107
1337.46	572.168
1335.91	560.718
1334.37	515.247
1332.83	558.89
1331.28	511.816
1329.74	484.192
1328.2	461.436
1326.65	537.432
1325.11	480.686
1323.56	504.87
1322.02	449.768
1320.47	436.745
1318.93	480.33
1317.38	438.2
1315.83	473.685
1314.29	444.503
1312.74	437.956
1311.19	450.801
1309.65	389.329
1308.1	419.945
1306.55	436.016
1305	403.644
1303.45	440.697
1301.9	426.09
1300.35	411.488
1298.8	437.225
1297.25	432.305
1295.7	408.033
1294.15	390.22
1292.6	436.901
1291.05	388.463
1289.5	402.896
1287.95	406.043
1286.4	375.359
1284.85	417.167
1283.29	426.752
1281.74	396.081
1280.19	408.886
1278.63	391.106
1277.08	426.435
1275.53	358.783
1273.97	392.496
1272.42	382.774
1270.86	401.999
1269.31	371.378
1267.75	400.242
1266.2	430.702
1264.64	406.52
1263.09	375.921
1261.53	375.851
1259.97	366.146
1258.42	380.528
1256.86	361.194
1255.3	433.352
1253.74	404.387
1252.18	369.015
1250.63	368.946
1249.07	349.632
1247.51	376.826
1245.95	336.676
1244.39	400.73
1242.83	391.04
1241.27	402.183
1239.71	368.466
1238.15	369.999
1236.59	385.944
1235.02	333.035
1233.46	371.393
1231.9	379.327
1230.34	368.055
1228.78	380.786
1227.21	404.709
1225.65	420.627
1224.09	372.578
1222.52	388.496
1220.96	386.825
1219.39	377.164
1217.83	343.539
1216.27	399.389
1214.7	317.855
1213.13	359.316
1211.57	392.779
1210	383.128
1208.44	397.421
1206.87	363.836
1205.3	365.364
1203.74	357.32
1202.17	350.874
1200.6	336.457
1199.03	350.743
1197.46	318.798
1195.9	345.831
1194.33	360.107
1192.76	358.447
1191.19	334.488
1189.62	396.533
1188.05	388.498
1186.48	362.955
1184.91	377.212
1183.34	350.089
1181.76	386.617
1180.19	389.726
1178.62	343.531
1177.05	354.598
1175.48	375.2
1173.9	333.802
1172.33	340.097
1170.76	395.646
1169.18	359.033
1167.61	387.556
1166.03	317.61
1164.46	325.489
1162.88	342.891
1161.31	374.57
1159.73	374.5
1158.16	347.458
1156.58	388.636
1155.01	374.29
1153.43	302.865
1151.85	331.345
1150.28	358.229
1148.7	351.823
1147.12	377.109
1145.54	323.176
1143.96	361.129
1142.39	365.813
1140.81	334.078
1139.23	351.429
1137.65	329.205
1136.07	376.616
1134.49	349.65
1132.91	366.984
1131.33	338.448
1129.75	365.266
1128.16	349.388
1126.58	284.516
1125	327.132
1123.42	317.591
1121.84	353.866
1120.25	325.369
1118.67	352.154
1117.09	320.511
1115.5	325.187
1113.92	348.8
1112.33	366.092
1110.75	351.825
1109.16	373.842
1107.58	328.036
1105.99	329.552
1104.41	308.996
1102.82	373.562
1101.24	341.974
1099.65	346.637
1098.06	338.695
1096.47	351.232
1094.89	359.04
1093.3	354.249
1091.71	351.035
1090.12	328.935
1088.53	325.726
1086.94	287.907
1085.36	284.707
1083.77	342.842
1082.18	339.633
1080.59	322.277
1079	359.939
1077.4	306.441
1075.81	325.238
1074.22	304.755
1072.63	314.122
1071.04	292.078
1069.45	361.104
1067.85	313.945
1066.26	313.886
1064.67	326.38
1063.07	332.594
1061.48	381.157
1059.89	332.469
1058.29	330.839
1056.7	277.476
1055.1	268.02
1053.51	327.519
1051.91	338.424
1050.31	324.263
1048.72	336.731
1047.12	305.35
1045.52	281.809
1043.93	377.24
1042.33	308.308
1040.73	309.815
1039.13	339.481
1037.54	328.468
1035.94	362.811
1034.34	331.472
1032.74	304.834
1031.14	317.28
1029.54	310.97
1027.94	315.599
1026.34	306.167
1024.74	326.413
1023.14	320.105
1021.54	348.147
1019.93	309.059
1018.33	315.243
1016.73	324.545
1015.13	307.324
1013.53	319.744
1011.92	335.278
1010.32	291.559
1008.71	385.035
1007.11	336.648
1005.51	333.468
1003.9	364.564
1002.3	356.707
1000.69	317.706
999.086	347.231