File: Akinwande-lab-measurements/raman/data/Raman 25-12-11 finished-wafer-1/d5_2.txt
2999.69	1379.13
2998.44	1399.17
2997.19	1334.8
2995.94	1380.66
2994.7	1332.34
2993.45	1390.21
2992.2	1355.92
2990.95	1299.62
2989.7	1381.49
2988.45	1389.26
2987.2	1348.99
2985.96	1390.79
2984.71	1418.56
2983.46	1374.31
2982.21	1272.07
2980.96	1283.85
2979.71	1347.61
2978.45	1355.38
2977.2	1363.14
2975.95	1400.88
2974.7	1328.71
2973.45	1348.46
2972.2	1348.23
2970.95	1361.98
2969.69	1427.64
2968.44	1295.64
2967.19	1407.19
2965.94	1446.87
2964.68	1304.95
2963.43	1340.64
2962.18	1320.46
2960.92	1334.2
2959.67	1351.92
2958.42	1389.56
2957.16	1307.6
2955.91	1303.39
2954.65	1364.94
2953.4	1324.86
2952.14	1334.6
2950.89	1400.09
2949.63	1292.32
2948.38	1353.82
2947.12	1345.63
2945.86	1333.46
2944.61	1333.23
2943.35	1366.82
2942.1	1509.81
2940.84	1338.51
2939.58	1348.23
2938.32	1355.95
2937.07	1403.43
2935.81	1305.8
2934.55	1398.97
2933.29	1372.9
2932.03	1319.03
2930.77	1328.74
2929.52	1330.5
2928.26	1292.55
2927	1320.12
2925.74	1298.06
2924.48	1329.59
2923.22	1289.68
2921.96	1376.74
2920.7	1384.44
2919.44	1413.95
2918.18	1395.86
2916.91	1340.12
2915.65	1300.25
2914.39	1371.37
2913.13	1351.32
2911.87	1357.03
2910.61	1289.45
2909.34	1348.64
2908.08	1290.99
2906.82	1393.72
2905.56	1375.66
2904.29	1365.53
2903.03	1331.66
2901.76	1396.72
2900.5	1343.07
2899.24	1295.38
2897.97	1399.96
2896.71	1314.71
2895.44	1340.18
2894.18	1337.97
2892.91	1321.93
2891.65	1307.88
2890.38	1366.91
2889.12	1313.36
2887.85	1332.88
2886.58	1324.75
2885.32	1332.42
2884.05	1375.61
2882.78	1329.99
2881.52	1315.95
2880.25	1329.53
2878.98	1287.89
2877.71	1319.22
2876.45	1360.4
2875.18	1356.22
2873.91	1371.75
2872.64	1292.7
2871.37	1264.89
2870.1	1361.2
2868.83	1297.94
2867.56	1315.44
2866.29	1358.53
2865.02	1405.54
2863.75	1308.86
2862.48	1338.15
2861.21	1241.51
2859.94	1357.37
2858.67	1359.1
2857.4	1270.37
2856.13	1281.95
2854.86	1289.6
2853.58	1338.51
2852.31	1371.69
2851.04	1361.63
2849.77	1363.36
2848.49	1349.38
2847.22	1313.8
2845.95	1262.52
2844.67	1287.83
2843.4	1346.49
2842.13	1257.95
2840.85	1261.65
2839.58	1277.13
2838.3	1288.68
2837.03	1370.83
2835.75	1384.32
2834.48	1331.15
2833.2	1348.56
2831.93	1244.46
2830.65	1281.48
2829.38	1261.66
2828.1	1320.21
2826.82	1404.2
2825.55	1278.64
2824.27	1374.35
2822.99	1289.94
2821.71	1311.25
2820.44	1283.63
2819.16	1304.93
2817.88	1334.04
2816.6	1325.99
2815.32	1274.92
2814.05	1249.29
2812.77	1200.21
2811.49	1340.72
2810.21	1381.52
2808.93	1336.35
2807.65	1248.21
2806.37	1289.01
2805.09	1290.75
2803.81	1386.19
2802.53	1251.26
2801.25	1284.22
2799.97	1315.22
2798.68	1285.73
2797.4	1324.53
2796.12	1220.93
2794.84	1283.12
2793.56	1273.15
2792.27	1276.83
2790.99	1257.12
2789.71	1293.93
2788.42	1266.43
2787.14	1258.42
2785.86	1336.11
2784.57	1273.56
2783.29	1281.13
2782.01	1261.44
2780.72	1319.62
2779.44	1286.31
2778.15	1262.74
2776.87	1280.03
2775.58	1353.72
2774.3	1320.43
2773.01	1275.48
2771.72	1214.99
2770.44	1284.76
2769.15	1270.93
2767.86	1336.77
2766.58	1321
2765.29	1305.24
2764	1295.3
2762.72	1339.74
2761.43	1257.97
2760.14	1273.28
2758.85	1290.53
2757.56	1354.33
2756.27	1309.48
2754.99	1328.65
2753.7	1340.06
2752.41	1215.73
2751.12	1300.82
2749.83	1298.66
2748.54	1296.5
2747.25	1377.66
2745.96	1303.8
2744.67	1272.58
2743.38	1326.59
2742.08	1347.66
2740.79	1360.98
2739.5	1242.67
2738.21	1350.83
2736.92	1358.34
2735.63	1303.94
2734.33	1324.99
2733.04	1404.05
2731.75	1328.4
2730.45	1347.5
2729.16	1351.13
2727.87	1356.7
2726.57	1424.09
2725.28	1333.05
2723.99	1359.86
2722.69	1398.25
2721.4	1384.49
2720.1	1353.36
2718.81	1457.36
2717.51	1466.76
2716.21	1433.7
2714.92	1497.12
2713.62	1539.3
2712.33	1510.11
2711.03	1477.06
2709.73	1567.42
2708.44	1572.93
2707.14	1574.59
2705.84	1639.83
2704.54	1726.25
2703.25	1612.3
2701.95	1810.39
2700.65	1719.58
2699.35	1827.09
2698.05	1738.23
2696.75	1787.97
2695.45	1806.9
2694.16	1810.44
2692.86	1856.29
2691.56	1817.5
2690.26	1855.65
2688.96	1857.25
2687.66	1799.26
2686.35	1810.48
2685.05	1762.13
2683.75	1731.08
2682.45	1723.1
2681.15	1615.24
2679.85	1697.54
2678.55	1655
2677.24	1639.36
2675.94	1637.16
2674.64	1542.84
2673.33	1550.25
2672.03	1475.17
2670.73	1484.5
2669.42	1518.76
2668.12	1407.3
2666.82	1504.82
2665.51	1422.14
2664.21	1339.5
2662.9	1352.68
2661.6	1363.93
2660.29	1346.46
2658.99	1348.14
2657.68	1384.29
2656.37	1349.59
2655.07	1293.85
2653.76	1276.4
2652.46	1299.14
2651.15	1333.35
2649.84	1270
2648.53	1258.31
2647.23	1365.16
2645.92	1250.22
2644.61	1253.83
2643.3	1293.74
2641.99	1283.96
2640.69	1224.52
2639.38	1237.68
2638.07	1327.22
2636.76	1269.71
2635.45	1305.76
2634.14	1263.54
2632.83	1295.76
2631.52	1255.47
2630.21	1297.22
2628.9	1268.39
2627.59	1283.42
2626.28	1216.47
2624.96	1202.91
2623.65	1202.7
2622.34	1219.64
2621.03	1261.35
2619.72	1306.85
2618.4	1215.2
2617.09	1237.84
2615.78	1256.67
2614.46	1220.28
2613.15	1229.58
2611.84	1286.46
2610.52	1246.28
2609.21	1160.45
2607.89	1274.38
2606.58	1186.68
2605.27	1220.69
2603.95	1260.4
2602.63	1186.06
2601.32	1145.94
2600	1202.75
2598.69	1153.14
2597.37	1234.62
2596.06	1181.23
2594.74	1220.9
2593.42	1182.72
2592.1	1212.88
2590.79	1206.97
2589.47	1202.97
2588.15	1200.86
2586.83	1196.86
2585.52	1225.1
2584.2	1185.07
2582.88	1205.72
2581.56	1173.28
2580.24	1165.5
2578.92	1222.14
2577.6	1142.36
2576.28	1216.03
2574.96	1177.94
2573.64	1145.55
2572.32	1222.97
2571	1220.86
2569.68	1192.26
2568.36	1229.9
2567.04	1231.58
2565.71	1284.32
2564.39	1170.63
2563.07	1234.71
2561.75	1215.59
2560.42	1137.89
2559.1	1137.69
2557.78	1177.17
2556.46	1107.06
2555.13	1178.65
2553.81	1167.11
2552.48	1214.11
2551.16	1208.24
2549.84	1206.14
2548.51	1253.11
2547.19	1190.62
2545.86	1150.8
2544.54	1237.36
2543.21	1133.42
2541.88	1191.68
2540.56	1095.32
2539.23	1196.92
2537.9	1191.06
2536.58	1153.16
2535.25	1162.38
2533.92	1181.01
2532.6	1165.74
2531.27	1093.99
2529.94	1016.61
2528.61	1148.19
2527.28	1129.17
2525.96	1153.44
2524.63	1140.07
2523.3	1137.99
2521.97	1254.39
2520.64	1130.07
2519.31	1201.31
2517.98	1157.87
2516.65	1133.23
2515.32	1236.38
2513.99	1155.38
2512.66	1153.3
2511.33	1162.49
2509.99	1224.25
2508.66	1115.15
2507.33	1205.05
2506	1180.45
2504.67	1187.74
2503.33	1260.7
2502	1164.82
2500.67	1134.61
2499.33	1166.29
2498	1177.33
2496.67	1177.13
2495.33	1146.94
2494	1191.71
2492.66	1142.79
2491.33	1166.94
2489.99	1131.15
2488.66	1160.91
2487.32	1158.84
2485.99	1168
2484.65	1111.65
2483.32	1137.65
2481.98	1152.42
2480.64	1217.68
2479.31	1168.84
2477.97	1168.64
2476.63	1082.44
2475.29	1114.03
2473.96	1104.49
2472.62	1083.74
2471.28	1176.96
2469.94	1201.04
2468.6	1156
2467.26	1181.94
2465.93	1172.4
2464.59	1172.2
2463.25	1119.74
2461.91	1102.75
2460.57	1193.97
2459.23	1160.18
2457.89	1165.58
2456.55	1243.68
2455.2	1118.56
2453.86	1137
2452.52	1194.58
2451.18	1196.23
2449.84	1142
2448.5	1199.54
2447.15	1121.11
2445.81	1135.81
2444.47	1122.58
2443.12	1157.75
2441.78	1189.18
2440.44	1108.96
2439.09	1144.12
2437.75	1138.34
2436.41	1147.43
2435.06	1169.55
2433.72	1132.16
2432.37	1130.1
2431.03	1096.45
2429.68	1176.16
2428.33	1174.09
2426.99	1056.87
2425.64	1117.97
2424.3	1173.48
2422.95	1143.57
2421.6	1195.34
2420.26	1107.91
2418.91	1167.09
2417.56	1064.85
2416.21	1142.56
2414.86	1149.78
2413.52	1151.43
2412.17	1166.06
2410.82	1126.93
2409.47	1110.06
2408.12	1096.89
2406.77	1115.23
2405.42	1120.59
2404.07	1146.32
2402.72	1101.68
2401.37	1177.38
2400.02	1188.28
2398.67	1119.6
2397.32	1100.9
2395.97	1060.01
2394.61	1122.71
2393.26	1152.1
2391.91	1109.37
2390.56	1164.64
2389.21	1136.71
2387.85	1068.13
2386.5	1047.62
2385.15	1143.5
2383.79	1134.06
2382.44	1098.78
2381.09	1131.82
2379.73	1091.01
2378.38	1090.81
2377.02	1027.88
2375.67	1136.56
2374.31	1095.77
2372.96	1077.14
2371.6	1097.23
2370.24	1108.1
2368.89	1069.19
2367.53	1109.55
2366.18	1094.62
2364.82	1116.53
2363.46	1096.07
2362.1	1116.14
2360.75	1128.84
2359.39	1034.74
2358.03	1178.14
2356.67	1148.49
2355.31	1021.31
2353.95	1089.21
2352.6	1101.89
2351.24	1096.18
2349.88	1092.31
2348.52	1117.86
2347.16	1033.1
2345.8	1117.46
2344.44	1056.62
2343.08	1087.67
2341.72	1085.64
2340.35	1045.05
2338.99	1028.33
2337.63	1119.95
2336.27	1016.96
2334.91	1044.31
2333.54	1102.85
2332.18	1054.95
2330.82	1060.27
2329.46	1041.74
2328.09	1094.73
2326.73	1092.71
2325.36	1024.69
2324	976.858
2322.64	1075.64
2321.27	1027.81
2319.91	1064.27
2318.54	1058.59
2317.18	1054.74
2315.81	1017.93
2314.45	1087.31
2313.08	1076.14
2311.71	1074.12
2310.35	1079.42
2308.98	1079.23
2307.61	1064.41
2306.25	1108.11
2304.88	1025.64
2303.51	1007.18
2302.14	1078.28
2300.77	1056.16
2299.41	1034.05
2298.04	1068.57
2296.67	1039.16
2295.3	1071.85
2293.93	1011.41
2292.56	1031.31
2291.19	1040.25
2289.82	994.454
2288.45	994.278
2287.08	1041.53
2285.71	1001.22
2284.34	1095.86
2282.97	1075.61
2281.6	946.009
2280.22	1024.21
2278.85	1038.6
2277.48	1038.42
2276.11	1005.45
2274.73	979.775
2273.36	1074.28
2271.99	1050.43
2270.61	1103.03
2269.24	1144.69
2267.87	1042.59
2266.49	962.363
2265.12	1027.67
2263.74	1023.85
2262.37	983.671
2260.99	950.775
2259.62	1086.93
2258.24	1090.37
2256.87	964.806
2255.49	1004.6
2254.11	1031.67
2252.74	1002.43
2251.36	971.386
2249.98	1091.03
2248.61	961.967
2247.23	1019.87
2245.85	1039.65
2244.47	977.783
2243.09	1079.18
2241.71	1010.08
2240.34	1075.17
2238.96	1064.1
2237.58	1067.54
2236.2	1043.79
2234.82	987.443
2233.44	978.21
2232.06	1007.02
2230.68	1062.97
2229.3	1035.63
2227.92	1080.7
2226.53	973.724
2225.15	1051.36
2223.77	1036.7
2222.39	991.296
2221.01	992.929
2219.62	1016.26
2218.24	1052.24
2216.86	1023.13
2215.47	1028.37
2214.09	1042.65
2212.71	1015.36
2211.32	1020.6
2209.94	951.788
2208.55	969.677
2207.17	1025.47
2205.78	976.553
2204.4	1005.26
2203.01	1050.19
2201.63	1008.51
2200.24	979.468
2198.86	979.294
2197.47	1022.4
2196.08	1002.38
2194.7	978.773
2193.31	978.599
2191.92	992.841
2190.53	1025.09
2189.15	1048.33
2187.76	976.104
2186.37	1038.95
2184.98	970.356
2183.59	998.983
2182.2	939.418
2180.81	977.037
2179.42	1032.63
2178.03	965.897
2176.64	971.121
2175.25	994.323
2173.86	979.765
2172.47	974.198
2171.08	1017.16
2169.69	1060.1
2168.3	948.529
2166.91	987.875
2165.51	978.721
2164.12	980.342
2162.73	1010.69
2161.34	904.609
2159.94	992.381
2158.55	970.674
2157.16	975.883
2155.76	964.948
2154.37	918.152
2152.97	982.534
2151.58	1020
2150.18	967.846
2148.79	1012.47
2147.39	997.961
2146	978.078
2144.6	968.949
2143.21	952.66
2141.81	1007.99
2140.41	1000.65
2139.02	986.157
2137.62	998.508
2136.22	1059.16
2134.82	1005.31
2133.43	1006.92
2132.03	953.093
2130.63	965.438
2129.23	972.416
2127.83	900.754
2126.43	947.053
2125.03	964.75
2123.63	961.006
2122.23	1000.13
2120.83	928.523
2119.43	962.278
2118.03	921.052
2116.63	938.734
2115.23	893.958
2113.83	993.705
2112.43	936.449
2111.03	954.116
2109.63	948.597
2108.22	927.035
2106.82	905.48
2105.42	916.011
2104.01	912.284
2102.61	933.5
2101.21	1027.74
2099.8	979.469
2098.4	904.512
2097	925.713
2095.59	939.787
2094.19	916.485
2092.78	955.465
2091.38	909.042
2089.97	946.231
2088.56	979.85
2087.16	992.121
2085.75	963.502
2084.34	973.994
2082.94	984.482
2081.53	945.219
2080.12	950.379
2078.72	998.164
2077.31	966.022
2075.9	914.361
2074.49	960.351
2073.08	919.359
2071.67	981.303
2070.27	876.45
2068.86	929.51
2067.45	922.25
2066.04	939.817
2064.63	932.558
2063.22	916.438
2061.81	951.72
2060.39	930.286
2058.98	979.726
2057.57	967.152
2056.16	913.848
2054.75	906.602
2053.34	922.373
2051.92	950.53
2050.51	897.267
2049.1	934.265
2047.69	914.637
2046.27	942.775
2044.86	880.709
2043.44	910.611
2042.03	1023.59
2040.62	885.539
2039.2	943.699
2037.79	924.095
2036.37	904.497
2034.96	902.569
2033.54	875.918
2032.12	888.121
2030.71	898.554
2029.29	926.633
2027.88	931.761
2026.46	875.134
2025.04	873.214
2023.62	940.08
2022.21	869.374
2020.79	906.244
2019.37	911.37
2017.95	883.007
2016.53	923.379
2015.11	910.881
2013.69	914.241
2012.28	899.987
2010.86	908.63
2009.44	860.932
2008.02	867.818
2006.59	909.902
2005.17	941.413
2003.75	907.817
2002.33	898.859
2000.91	893.422
1999.49	852.819
1998.07	930.021
1996.64	919.308
1995.22	912.113
1993.8	838.15
1992.38	911.786
1990.95	904.597
1989.53	874.58
1988.11	834.038
1986.68	839.155
1985.26	893.417
1983.83	852.893
1982.41	882.569
1980.98	840.307
1979.56	903.3
1978.13	848.774
1976.71	866.155
1975.28	848.469
1973.85	930.695
1972.43	863.937
1971	891.815
1969.57	896.91
1968.15	828.442
1966.72	922.856
1965.29	924.441
1963.86	866.508
1962.43	904.857
1961	878.446
1959.58	892.285
1958.15	865.885
1956.72	874.475
1955.29	821.859
1953.86	868.916
1952.43	879.248
1951	824.911
1949.57	905.142
1948.13	842.085
1946.7	868.135
1945.27	881.951
1943.84	869.569
1942.41	885.125
1940.98	902.421
1939.54	863.865
1938.11	861.965
1936.68	846.109
1935.24	861.655
1933.81	917.306
1932.38	864.832
1930.94	882.11
1929.51	807.003
1928.07	843.454
1926.64	810.197
1925.2	850.119
1923.77	863.899
1922.33	839.364
1920.9	882.741
1919.46	826.877
1918.03	830.209
1916.59	892.705
1915.15	859.487
1913.71	850.635
1912.28	831.35
1910.84	838.156
1909.4	862.346
1907.96	890.003
1906.52	860.298
1905.09	781.948
1903.65	896.472
1902.21	856.359
1900.77	866.625
1899.33	830.004
1897.89	862.841
1896.45	814.083
1895.01	826.085
1893.57	851.963
1892.13	768.537
1890.68	884.612
1889.24	818.553
1887.8	820.139
1886.36	887.601
1884.92	811.177
1883.47	838.758
1882.03	821.281
1880.59	803.809
1879.14	800.2
1877.7	872.788
1876.26	836.271
1874.81	849.969
1873.37	794.431
1871.92	792.557
1870.48	787.223
1869.03	807.84
1867.59	799.046
1866.14	869.8
1864.7	850.625
1863.25	840.1
1861.8	796.741
1860.36	827.701
1858.91	779.177
1857.46	822.22
1856.02	822.072
1854.57	749.401
1853.12	826.954
1851.67	794.009
1850.22	824.93
1848.77	826.507
1847.32	812.556
1845.87	826.208
1844.43	865.723
1842.98	825.91
1841.53	1460.17
1840.07	5082.94
1838.62	1085.68
1837.17	797.745
1835.72	728.694
1834.27	814.681
1832.82	830.032
1831.37	788.56
1829.91	810.796
1828.46	822.697
1827.01	872.452
1825.56	834.443
1824.1	758.604
1822.65	846.181
1821.19	766.928
1819.74	849.313
1818.29	809.624
1816.83	831.82
1815.38	817.923
1813.92	798.877
1812.47	8603.98
1811.01	829.501
1809.55	831.068
1808.1	762.247
1806.64	777.557
1805.19	743.093
1803.73	773.844
1802.27	782.281
1800.81	782.14
1799.36	842.02
1797.9	721.846
1796.44	797.144
1794.98	774.718
1793.52	819.133
1792.06	772.724
1790.6	798.279
1789.14	801.56
1787.68	753.467
1786.22	779.012
1784.76	794.278
1783.3	763.327
1781.84	778.589
1780.38	819.509
1778.92	749.227
1777.46	776.456
1775.99	772.895
1774.53	806.948
1773.07	796.546
1771.61	775.893
1770.14	750.122
1768.68	741.444
1767.22	797.676
1765.75	788.993
1764.29	720.551
1762.82	749.442
1761.36	786.857
1759.89	745.757
1758.43	798.515
1756.96	769.369
1755.5	753.879
1754.03	816.839
1752.57	757.016
1751.1	785.858
1749.63	744.811
1748.17	773.644
1746.7	705.354
1745.23	778.474
1743.76	747.676
1742.29	739.026
1740.83	786.563
1739.36	750.673
1737.89	764.152
1736.42	707.861
1734.95	712.836
1733.48	746.726
1732.01	744.89
1730.54	719.25
1729.07	739.519
1727.6	747.884
1726.13	703.563
1724.66	776.497
1723.18	779.754
1721.71	696.385
1720.24	752.299
1718.77	711.413
1717.3	750.328
1715.82	731.522
1714.35	734.783
1712.88	692.233
1711.4	741.301
1709.93	763.215
1708.45	737.64
1706.98	754.46
1705.5	701.774
1704.03	760.965
1702.55	755.743
1701.08	714.945
1699.6	714.815
1698.13	775.653
1696.65	760.273
1695.17	790.608
1693.7	715.988
1692.22	766.627
1690.74	705.575
1689.26	718.98
1687.79	742.529
1686.31	733.938
1684.83	760.857
1683.35	792.838
1681.87	714.946
1680.39	740.164
1678.91	736.65
1677.43	706.109
1675.95	714.425
1674.47	712.606
1672.99	756.373
1671.51	715.723
1670.03	818.543
1668.55	703.65
1667.06	693.399
1665.58	716.888
1664.1	772.411
1662.62	693.02
1661.13	746.842
1659.65	728.164
1658.17	739.829
1656.68	729.584
1655.2	754.721
1653.72	704.053
1652.23	751.077
1650.75	695.378
1649.26	723.869
1647.78	762.448
1646.29	775.772
1644.8	728.52
1643.32	708.201
1641.83	718.163
1640.34	733.166
1638.86	746.483
1637.37	704.323
1635.88	695.791
1634.4	729.271
1632.91	693.857
1631.42	735.723
1629.93	675.13
1628.44	752.246
1626.95	701.744
1625.46	772.113
1623.97	733.374
1622.48	736.596
1620.99	768.335
1619.5	801.741
1618.01	726.13
1616.52	704.201
1615.03	715.807
1613.54	744.169
1612.05	723.924
1610.55	740.546
1609.06	825.843
1607.57	731.902
1606.08	745.164
1604.58	781.861
1603.09	826.913
1601.6	791.616
1600.1	768.046
1598.61	819.768
1597.11	863.108
1595.62	846.226
1594.12	897.906
1592.63	917.803
1591.13	909.278
1589.64	942.535
1588.14	898.92
1586.64	841.957
1585.15	845.144
1583.65	744.793
1582.15	849.843
1580.65	746.189
1579.16	751.06
1577.66	745.916
1576.16	674.038
1574.66	708.945
1573.16	773.859
1571.66	755.375
1570.16	710.223
1568.66	733.429
1567.16	778.293
1565.66	714.832
1564.16	686.379
1562.66	691.251
1561.16	739.419
1559.66	734.289
1558.16	729.16
1556.65	699.066
1555.15	722.236
1553.65	672.189
1552.15	683.71
1550.64	627.036
1549.14	700.089
1547.64	671.696
1546.13	703.157
1544.63	691.394
1543.12	692.929
1541.62	667.881
1540.11	687.692
1538.61	664.315
1537.1	654.23
1535.6	672.372
1534.09	680.548
1532.59	652.21
1531.08	610.609
1529.57	690.127
1528.06	643.558
1526.56	641.782
1525.05	688.089
1523.54	664.755
1522.03	674.577
1520.52	656.225
1519.01	666.046
1517.51	631.136
1516	685.676
1514.49	672.303
1512.98	620.855
1511.47	633.984
1509.96	673.587
1508.44	663.535
1506.93	670.031
1505.42	683.141
1503.91	636.709
1502.4	689.504
1500.89	672.845
1499.37	604.954
1497.86	661.03
1496.35	652.647
1494.83	612.88
1493.32	607.813
1491.81	639.077
1490.29	718.21
1488.78	653.699
1487.26	650.277
1485.75	663.359
1484.23	643.439
1482.72	648.269
1481.2	643.202
1479.69	682.659
1478.17	684.182
1476.65	636.254
1475.14	631.193
1473.62	594.827
1472.1	680.384
1470.58	639.08
1469.07	615.908
1467.55	671.776
1466.03	589.342
1464.51	636.964
1462.99	650.012
1461.47	582.435
1459.95	615.228
1458.43	661.166
1456.91	661.044
1455.39	613.244
1453.87	647.65
1452.35	636.027
1450.83	581.685
1449.3	581.578
1447.78	597.896
1446.26	573.152
1444.74	576.33
1443.21	581.149
1441.69	618.794
1440.17	562.884
1438.64	641.536
1437.12	629.935
1435.6	597.016
1434.07	605.105
1432.55	580.4
1431.02	621.274
1429.5	606.409
1427.97	588.272
1426.45	638.952
1424.92	601.16
1423.39	623.977
1421.87	640.236
1420.34	600.827
1418.81	594.169
1417.28	589.15
1415.76	582.496
1414.23	516.952
1412.7	587.188
1411.17	618.151
1409.64	650.737
1408.11	665.33
1406.58	599.83
1405.05	604.622
1403.52	615.947
1401.99	604.399
1400.46	574.889
1398.93	602.543
1397.4	633.451
1395.87	618.643
1394.34	646.273
1392.8	611.888
1391.27	615.038
1389.74	595.351
1388.21	591.979
1386.67	570.674
1385.14	603.172
1383.6	663.367
1382.07	596.431
1380.54	526.261
1379	548.97
1377.47	578.185
1375.93	565.051
1374.4	590.995
1372.86	555.075
1371.32	577.757
1369.79	567.887
1368.25	536.871
1366.71	572.557
1365.18	606.603
1363.64	531.696
1362.1	567.362
1360.56	622.52
1359.02	606.154
1357.49	591.419
1355.95	627.048
1354.41	620.435
1352.87	623.568
1351.33	626.7
1349.79	607.105
1348.25	649.19
1346.71	642.579
1345.17	597.034
1343.62	614.766
1342.08	614.652
1340.54	604.809
1339	596.592
1337.46	609.448
1335.91	541.271
1334.37	594.64
1332.83	571.85
1331.28	597.659
1329.74	557.064
1328.2	586.104
1326.65	574.664
1325.11	535.714
1323.56	550.179
1322.02	580.816
1320.47	577.473
1318.93	561.194
1317.38	606.365
1315.83	573.919
1314.29	562.498
1312.74	523.608
1311.19	557.442
1309.65	533.107
1308.1	629.918
1306.55	518.375
1305	573.174
1303.45	521.411
1301.9	505.175
1300.35	548.65
1298.8	484.013
1297.25	498.441
1295.7	567.698
1294.15	559.531
1292.6	506.225
1291.05	548.04
1289.5	562.442
1287.95	543.002
1286.4	497.794
1284.85	549.244
1283.29	521.765
1281.74	476.586
1280.19	508.693
1278.63	513.427
1277.08	498.849
1275.53	521.281
1273.97	551.747
1272.42	511.437
1270.86	530.638
1269.31	496.778
1267.75	503.115
1266.2	541.592
1264.64	517.389
1263.09	514.08
1261.53	517.197
1259.97	528.342
1258.42	526.639
1256.86	516.909
1255.3	503.973
1253.74	503.879
1252.18	527.851
1250.63	538.982
1249.07	546.901
1247.51	540.385
1245.95	511.427
1244.39	514.537
1242.83	469.568
1241.27	522.357
1239.71	535.076
1238.15	510.951
1236.59	469.219
1235.02	464.328
1233.46	470.645
1231.9	499.367
1230.34	483.272
1228.78	497.581
1227.21	513.485
1225.65	522.985
1224.09	471.719
1222.52	487.618
1220.96	487.527
1219.39	513.007
1217.83	460.182
1216.27	528.791
1214.7	511.123
1213.13	479.089
1211.57	488.579
1210	482.103
1208.44	470.84
1206.87	504.264
1205.3	462.688
1203.74	476.958
1202.17	492.818
1200.6	454.456
1199.03	500.606
1197.46	540.362
1195.9	540.261
1194.33	476.425
1192.76	508.198
1191.19	496.953
1189.62	447.493
1188.05	496.768
1186.48	474.389
1184.91	458.384
1183.34	464.664
1181.76	434.348
1180.19	450.174
1178.62	500.983
1177.05	505.66
1175.48	459.461
1173.9	481.629
1172.33	535.573
1170.76	440.136
1169.18	471.827
1167.61	505.094
1166.03	522.468
1164.46	477.914
1162.88	492.112
1161.31	517.414
1159.73	453.843
1158.16	407.748
1156.58	502.848
1155.01	412.353
1153.43	413.862
1151.85	477.2
1150.28	483.451
1148.7	458.004
1147.12	527.636
1145.54	448.328
1143.96	441.908
1142.39	481.416
1140.81	462.326
1139.23	421.081
1137.65	501.721
1136.07	438.33
1134.49	452.488
1132.91	430.257
1131.33	464.971
1129.75	447.49
1128.16	452.149
1126.58	444.161
1125	469.364
1123.42	491.397
1121.84	466.029
1120.25	453.306
1118.67	439.008
1117.09	479.977
1115.5	464.101
1113.92	460.858
1112.33	484.441
1110.75	452.797
1109.16	479.528
1107.58	397.429
1105.99	398.931
1104.41	490.294
1102.82	405.087
1101.24	420.77
1099.65	453.779
1098.06	423.763
1096.47	452.034
1094.89	395.259
1093.3	439.269
1091.71	464.373
1090.12	448.548
1088.53	465.773
1086.94	415.341
1085.36	413.69
1083.77	377.441
1082.18	383.66
1080.59	391.448
1079	425.954
1077.4	429.017
1075.81	413.225
1074.22	441.424
1072.63	403.646
1071.04	398.86
1069.45	422.335
1067.85	411.268
1066.26	395.496
1064.67	451.911
1063.07	439.275
1061.48	420.37
1059.89	385.79
1058.29	439.028
1056.7	416.998
1055.1	371.466
1053.51	419.976
1051.91	416.763
1050.31	388.488
1048.72	421.306
1047.12	411.831
1045.52	427.41
1043.93	410.111
1042.33	431.944
1040.73	439.687
1039.13	389.542
1037.54	401.982
1035.94	450.386
1034.34	434.666
1032.74	447.09
1031.14	439.191
1029.54	442.234
1027.94	428.089
1026.34	437.381
1024.74	446.67
1023.14	395.057
1021.54	410.594
1019.93	419.883
1018.33	399.516
1016.73	424.406
1015.13	422.766
1013.53	435.164
1011.92	460.033
1010.32	444.355
1008.71	447.389
1007.11	437.954
1005.51	434.755
1003.9	442.463
1002.3	397.207
1000.69	414.263
999.086	460.898