File: Akinwande-lab-measurements/raman/data/Raman 25-12-17 wafer-2/gr-baseline-1.txt
2999.69	144.327
2998.44	124.282
2997.19	168.353
2995.94	150.29
2994.7	108.19
2993.45	90.1431
2992.2	90.1277
2990.95	106.132
2989.7	138.149
2988.45	118.107
2987.2	118.087
2985.96	122.069
2984.71	170.067
2983.46	80.018
2982.21	132.007
2980.96	123.986
2979.71	85.9753
2978.45	115.947
2977.2	115.927
2975.95	73.9409
2974.7	135.868
2973.45	87.8998
2972.2	141.814
2970.95	115.828
2969.69	97.8383
2968.44	131.76
2967.19	159.681
2965.94	123.732
2964.68	129.697
2963.43	153.615
2962.18	105.717
2960.92	107.693
2959.67	111.663
2958.42	93.7009
2957.16	103.651
2955.91	147.479
2954.65	99.6307
2953.4	163.366
2952.14	143.419
2950.89	169.285
2949.63	127.44
2948.38	119.455
2947.12	117.444
2945.86	121.404
2944.61	133.323
2943.35	139.269
2942.1	97.4715
2940.84	119.332
2939.58	113.346
2938.32	101.398
2937.07	117.283
2935.81	153.039
2934.55	137.115
2933.29	131.131
2932.03	125.149
2930.77	111.225
2929.52	99.2908
2928.26	121.114
2927	97.2717
2925.74	93.2855
2924.48	182.57
2923.22	115.079
2921.96	140.848
2920.7	95.2052
2919.44	89.2396
2918.18	87.2415
2916.91	130.84
2915.65	154.603
2914.39	138.722
2913.13	136.717
2911.87	126.788
2910.61	116.863
2909.34	57.4313
2908.08	132.663
2906.82	95.0261
2905.56	95.0099
2904.29	178.113
2903.03	132.573
2901.76	85.0693
2900.5	114.725
2899.24	191.835
2897.97	108.754
2896.71	122.574
2895.44	108.716
2894.18	88.9346
2892.91	132.391
2891.65	144.222
2890.38	90.8642
2889.12	92.8236
2887.85	132.3
2886.58	88.8432
2885.32	96.7238
2884.05	122.364
2882.78	112.477
2881.52	86.8094
2880.25	76.9315
2878.98	114.391
2877.71	84.7928
2876.45	149.841
2875.18	128.131
2873.91	147.818
2872.64	124.146
2871.37	135.946
2870.1	94.5551
2868.83	161.504
2867.56	124.061
2866.29	141.76
2865.02	153.547
2863.75	135.806
2862.48	64.9398
2861.21	100.344
2859.94	110.163
2858.67	114.078
2857.4	135.69
2856.13	117.971
2854.86	125.814
2853.58	106.138
2852.31	184.726
2851.04	108.066
2849.77	145.373
2848.49	115.885
2847.22	119.793
2845.95	127.627
2844.67	141.347
2843.4	155.062
2842.13	135.411
2840.85	92.2205
2839.58	164.791
2838.3	109.842
2837.03	80.4062
2835.75	101.961
2834.48	158.797
2833.2	129.368
2831.93	84.2705
2830.65	103.85
2829.38	101.874
2828.1	109.691
2826.82	150.799
2825.55	97.9048
2824.27	103.761
2822.99	97.8712
2821.71	154.61
2820.44	123.275
2819.16	111.516
2817.88	133.013
2816.6	162.327
2815.32	119.28
2814.05	146.63
2812.77	134.877
2811.49	62.5407
2810.21	115.29
2808.93	85.9639
2807.65	103.53
2806.37	136.714
2805.09	152.312
2803.81	136.667
2802.53	132.739
2801.25	87.8269
2799.97	119.034
2798.68	109.258
2797.4	122.894
2796.12	120.923
2794.84	120.902
2793.56	101.384
2792.27	140.354
2790.99	157.871
2789.71	113.024
2788.42	114.953
2787.14	116.881
2785.86	111.018
2784.57	109.051
2783.29	130.45
2782.01	134.32
2780.72	134.297
2779.44	99.2461
2778.15	128.414
2776.87	114.775
2775.58	122.535
2774.3	138.071
2773.01	141.936
2771.72	165.239
2770.44	71.9153
2769.15	122.429
2767.86	151.553
2766.58	128.215
2765.29	101
2764	124.287
2762.72	104.849
2761.43	118.42
2760.14	81.5211
2758.85	180.48
2757.56	116.418
2756.27	95.0587
2754.99	120.258
2753.7	110.54
2752.41	135.728
2751.12	85.2999
2749.83	116.298
2748.54	91.0844
2747.25	116.258
2745.96	96.8649
2744.67	131.713
2743.38	145.247
2742.08	145.222
2740.79	90.9901
2739.5	125.816
2738.21	125.794
2736.92	135.447
2735.63	123.816
2734.33	141.203
2733.04	145.047
2731.75	160.491
2730.45	127.597
2729.16	81.1841
2727.87	164.273
2726.57	142.989
2725.28	152.624
2723.99	173.846
2722.69	112.015
2721.4	191.164
2720.1	142.866
2718.81	210.401
2717.51	173.695
2716.21	212.258
2714.92	194.858
2713.62	273.911
2712.33	202.505
2711.03	244.892
2709.73	252.561
2708.44	221.676
2707.14	238.983
2705.84	314.093
2704.54	287.066
2703.25	277.385
2701.95	283.115
2700.65	369.718
2699.35	356.177
2698.05	381.14
2696.75	373.376
2695.45	419.494
2694.16	432.889
2692.86	475.134
2691.56	494.284
2690.26	513.428
2688.96	472.964
2687.66	501.717
2686.35	536.225
2685.05	490.013
2683.75	491.85
2682.45	461.029
2681.15	491.68
2679.85	505.037
2678.55	506.869
2677.24	462.63
2675.94	416.487
2674.64	408.739
2673.33	376.051
2672.03	395.169
2670.73	329.89
2669.42	339.421
2668.12	343.197
2666.82	249.206
2665.51	275.995
2664.21	239.538
2662.9	273.984
2661.6	227.961
2660.29	212.599
2658.99	201.072
2657.68	164.659
2656.37	153.145
2655.07	208.624
2653.76	156.919
2652.46	200.898
2651.15	166.43
2649.84	151.099
2648.53	174.021
2647.23	135.751
2645.92	141.463
2644.61	149.083
2643.3	110.838
2641.99	116.55
2640.69	135.633
2639.38	129.88
2638.07	129.857
2636.76	131.744
2635.45	108.813
2634.14	137.424
2632.83	145.034
2631.52	103.033
2630.21	158.337
2628.9	131.607
2627.59	160.189
2626.28	144.908
2624.96	135.351
2623.65	112.455
2622.34	91.4733
2621.03	72.4038
2619.72	97.1566
2618.4	104.759
2617.09	118.071
2615.78	144.707
2614.46	138.971
2613.15	91.3621
2611.84	106.571
2610.52	98.9412
2609.21	106.534
2607.89	135.046
2606.58	76.0689
2605.27	125.492
2603.95	114.064
2602.63	96.9373
2601.32	112.124
2600	110.204
2598.69	100.686
2597.37	121.562
2596.06	75.9632
2594.74	108.229
2593.42	108.21
2592.1	127.172
2590.79	106.275
2589.47	96.7689
2588.15	138.488
2586.83	115.703
2585.52	117.579
2584.2	104.286
2582.88	94.789
2581.56	136.472
2580.24	60.6438
2578.92	94.7395
2577.6	155.346
2576.28	41.6709
2574.96	140.141
2573.64	96.567
2572.32	147.665
2571	140.068
2569.68	104.086
2568.36	134.343
2567.04	139.995
2565.71	115.381
2564.39	86.9935
2563.07	115.341
2561.75	62.3867
2560.42	120.971
2559.1	107.721
2557.78	113.371
2556.46	120.908
2555.13	81.2209
2553.81	107.646
2552.48	103.851
2551.16	92.5057
2549.84	107.59
2548.51	115.12
2547.19	141.516
2545.86	58.4832
2544.54	128.263
2543.21	101.838
2541.88	81.0794
2540.56	126.311
2539.23	50.8926
2537.9	122.498
2536.58	107.402
2535.25	122.455
2533.92	131.852
2532.6	114.879
2531.27	96.0299
2529.94	105.426
2528.61	86.5849
2527.28	105.389
2525.96	120.424
2524.63	69.608
2523.3	99.6913
2521.97	112.838
2520.64	97.7762
2519.31	80.8393
2517.98	161.65
2516.65	131.553
2515.32	88.3129
2513.99	108.963
2512.66	114.579
2511.33	90.1447
2509.99	99.5174
2508.66	97.6226
2507.33	80.7123
2506	76.9448
2504.67	90.066
2503.33	136.951
2502	144.43
2500.67	80.6418
2499.33	75.0025
2498	76.8642
2496.67	88.0972
2495.33	82.4595
2494	129.289
2492.66	82.4307
2491.33	123.624
2489.99	138.585
2488.66	127.326
2487.32	108.583
2485.99	114.179
2484.65	93.573
2483.32	69.2319
2481.98	125.344
2480.64	110.358
2479.31	119.69
2477.97	93.4912
2476.63	84.1274
2475.29	74.7668
2473.96	100.918
2472.62	149.481
2471.28	136.378
2469.94	145.693
2468.6	119.522
2467.26	119.501
2465.93	134.415
2464.59	119.459
2463.25	111.974
2461.91	76.5019
2460.57	97.0098
2459.23	152.95
2457.89	108.165
2456.55	130.522
2455.2	108.128
2453.86	136.068
2452.52	91.3171
2451.18	78.2581
2449.84	130.407
2448.5	135.972
2447.15	102.427
2445.81	152.683
2444.47	150.794
2443.12	80.0372
2441.78	120.965
2440.44	93.0339
2439.09	104.18
2437.75	133.922
2436.41	89.2656
2435.06	105.984
2433.72	89.2343
2432.37	118.958
2431.03	85.4862
2429.68	100.336
2428.33	76.1675
2426.99	89.156
2425.64	141.139
2424.3	115.119
2422.95	64.9754
2421.6	103.942
2420.26	111.347
2418.91	89.0622
2417.56	118.729
2416.21	142.821
2414.86	96.4333
2413.52	129.791
2412.17	118.645
2410.82	103.797
2409.47	77.8337
2408.12	79.6729
2406.77	133.382
2405.42	94.4626
2404.07	114.817
2402.72	138.867
2401.37	127.735
2400.02	96.2472
2398.67	118.437
2397.32	125.818
2395.97	86.9468
2394.61	107.277
2393.26	131.299
2391.91	81.3541
2390.56	153.437
2389.21	107.202
2387.85	101.639
2386.5	83.1446
2385.15	59.1147
2383.79	116.362
2382.44	134.808
2381.09	68.3153
2379.73	68.3033
2378.38	95.9769
2377.02	131.022
2375.67	108.859
2374.31	110.684
2372.96	130.953
2371.6	75.6076
2370.24	94.0319
2368.89	103.233
2367.53	108.744
2366.18	138.209
2364.82	138.185
2363.46	55.2643
2362.1	101.3
2360.75	75.5012
2359.39	119.676
2358.03	58.9071
2356.67	64.4182
2355.31	114.092
2353.95	119.592
2352.6	117.731
2351.24	91.9613
2349.88	91.9451
2348.52	137.893
2347.16	77.2067
2345.8	99.2482
2344.44	67.9914
2343.08	115.749
2341.72	73.4784
2340.35	123.055
2338.99	100.997
2337.63	108.323
2336.27	117.483
2334.91	77.0843
2333.54	95.4209
2332.18	110.082
2330.82	86.2154
2329.46	62.3576
2328.09	102.689
2326.73	161.339
2325.36	84.3216
2324	89.805
2322.64	82.4594
2321.27	87.9412
2319.91	108.075
2318.54	115.382
2317.18	115.362
2315.81	100.695
2314.45	113.491
2313.08	80.5275
2311.71	139.068
2310.35	71.3515
2308.98	151.824
2307.61	109.733
2306.25	109.713
2304.88	87.7552
2303.51	120.642
2302.14	109.655
2300.77	102.327
2299.41	85.8663
2298.04	94.9843
2296.67	122.362
2295.3	136.948
2293.93	135.098
2292.56	104.044
2291.19	83.9504
2289.82	124.079
2288.45	80.272
2287.08	63.8415
2285.71	96.6571
2284.34	92.9933
2282.97	71.0999
2281.6	85.6694
2280.22	142.15
2278.85	89.2833
2277.48	127.525
2276.11	122.038
2274.73	116.553
2273.36	92.8619
2271.99	105.589
2270.61	67.3466
2269.24	65.5148
2267.87	134.645
2266.49	54.5764
2265.12	127.322
2263.74	65.4685
2262.37	83.6393
2260.99	127.255
2259.62	87.245
2258.24	65.4222
2256.87	101.75
2255.49	79.9321
2254.11	81.7343
2252.74	105.328
2251.36	161.595
2249.98	74.4295
2248.61	98.0117
2247.23	116.141
2245.85	70.7612
2244.47	108.844
2243.09	87.0599
2241.71	123.313
2240.34	72.5242
2238.96	112.393
2237.58	112.373
2236.2	65.2371
2234.82	88.7792
2233.44	110.502
2232.06	97.8037
2230.68	54.3258
2229.3	83.2847
2227.92	77.8393
2226.53	52.487
2225.15	124.861
2223.77	142.931
2222.39	90.4467
2221.01	95.8565
2219.62	66.9068
2218.24	108.478
2216.86	63.2678
2215.47	126.513
2214.09	59.6314
2212.71	74.0743
2211.32	86.7058
2209.94	54.1815
2208.55	86.675
2207.17	126.379
2205.78	131.772
2204.4	101.067
2203.01	93.8313
2201.63	86.5982
2200.24	61.3295
2198.86	91.9779
2197.47	82.9457
2196.08	84.7339
2194.7	75.7062
2193.31	93.7148
2191.92	115.321
2190.53	90.0784
2189.15	82.8575
2187.76	75.639
2186.37	66.6226
2184.98	50.4081
2183.59	43.1993
2182.2	97.1811
2180.81	71.9732
2179.42	118.735
2178.03	88.1359
2176.64	95.3137
2175.25	102.489
2173.86	118.65
2172.47	124.022
2171.08	77.2751
2169.69	84.4484
2168.3	141.92
2166.91	149.079
2165.51	125.707
2164.12	95.1614
2162.73	62.8313
2161.34	53.8458
2159.94	105.878
2158.55	96.888
2157.16	68.1683
2155.76	102.234
2154.37	116.562
2152.97	78.8896
2151.58	87.8387
2150.18	98.577
2148.79	109.311
2147.39	120.042
2146	120.021
2144.6	94.9248
2143.21	102.071
2141.81	84.1486
2140.41	109.195
2139.02	82.3289
2137.62	69.7882
2136.22	78.7214
2134.82	94.8066
2133.43	57.2315
2132.03	110.866
2130.63	98.3316
2129.23	114.402
2127.83	112.594
2126.43	83.984
2125.03	85.7556
2123.63	101.817
2122.23	85.725
2120.83	73.2104
2119.43	94.621
2118.03	132.089
2116.63	78.5253
2115.23	69.5896
2113.83	33.8966
2112.43	137.346
2111.03	74.9026
2109.63	80.2384
2108.22	105.183
2106.82	73.0801
2105.42	49.8994
2104.01	94.4357
2102.61	131.83
2101.21	108.651
2099.8	49.8639
2098.4	110.393
2097	121.055
2095.59	80.0955
2094.19	99.6566
2092.78	58.7157
2091.38	92.5053
2089.97	80.0384
2088.56	96.0289
2087.16	88.8998
2085.75	99.55
2084.34	101.31
2082.94	85.2981
2081.53	106.604
2080.12	53.2923
2078.72	110.118
2077.31	118.977
2075.9	69.2429
2074.49	104.733
2073.08	134.887
2071.67	81.6273
2070.27	81.6128
2068.86	76.2766
2067.45	79.8101
2066.04	92.2085
2064.63	69.144
2063.22	95.7208
2061.81	79.753
2060.39	85.0547
2058.98	83.2679
2057.57	109.823
2056.16	95.6353
2054.75	99.1596
2053.34	58.4229
2051.92	113.285
2050.51	90.2576
2049.1	109.705
2047.69	54.8429
2046.27	100.822
2044.86	97.2671
2043.44	63.6543
2042.03	111.375
2040.62	106.053
2039.2	100.732
2037.79	93.6463
2036.37	125.428
2034.96	95.3791
2033.54	65.3406
2032.12	100.642
2030.71	116.512
2029.29	104.136
2027.88	102.353
2026.46	63.5178
2025.04	67.0346
2023.62	97.0064
2022.21	95.2256
2020.79	51.1305
2019.37	100.48
2017.95	156.862
2016.53	119.828
2015.11	89.8548
2013.69	2726.87
2012.28	100.39
2010.86	44.0228
2009.44	84.5086
2008.02	75.6921
2006.59	96.7981
2005.17	105.579
2003.75	131.95
2002.33	98.5051
2000.91	98.4874
1999.49	137.154
1998.07	80.8714
1996.64	86.1302
1995.22	94.902
1993.8	86.0993
1992.38	112.436
1990.95	117.685
1989.53	73.7597
1988.11	66.723
1986.68	91.2888
1985.26	52.6572
1983.83	103.541
1982.41	103.522
1980.98	77.189
1979.56	142.072
1978.13	56.1173
1976.71	113.968
1975.28	73.6275
1973.85	94.647
1972.43	64.8391
1971	82.3483
1969.57	54.3051
1968.15	49.041
1966.72	71.7971
1965.29	66.5317
1963.86	52.5156
1962.43	63.0074
1961	103.244
1959.58	85.7293
1958.15	68.2213
1956.72	73.4559
1955.29	101.421
1953.86	101.403
1952.43	31.4641
1951	75.1508
1949.57	101.348
1948.13	71.6297
1946.7	90.8311
1945.27	50.6467
1943.84	64.6066
1942.41	103.003
1940.98	48.8739
1939.54	104.711
1938.11	75.0293
1936.68	90.7168
1935.24	71.5139
1933.81	83.7085
1932.38	87.1807
1930.94	94.1382
1929.51	67.9765
1928.07	85.391
1926.64	87.118
1925.2	88.8444
1923.77	62.7024
1922.33	73.1396
1920.9	100.984
1919.46	66.1501
1918.03	67.8787
1916.59	74.8272
1915.15	88.7325
1913.71	106.112
1912.28	104.354
1910.84	88.6846
1909.4	104.316
1907.96	85.1761
1906.52	74.7329
1905.09	79.9324
1903.65	74.706
1902.21	95.537
1900.77	81.626
1899.33	97.239
1897.89	95.4854
1896.45	97.204
1895.01	74.6253
1893.57	85.0228
1892.13	81.5378
1890.68	81.5231
1889.24	91.9137
1887.8	67.6225
1886.36	79.7454
1884.92	105.73
1883.47	31.1935
1882.03	98.7616
1880.59	81.4203
1879.14	81.4056
1877.7	114.294
1876.26	103.885
1874.81	62.3195
1873.37	114.232
1871.92	124.594
1870.48	76.1271
1869.03	70.9238
1867.59	60.5338
1866.14	74.3567
1864.7	79.53
1863.25	98.5303
1861.8	65.675
1860.36	44.9274
1858.91	122.664
1857.46	93.2771
1856.02	72.5358
1854.57	72.5227
1853.12	82.8681
1851.67	67.3182
1850.22	70.7576
1848.77	86.2742
1847.32	74.1824
1845.87	51.7458
1844.43	79.3292
1842.98	75.8664
1841.53	68.957
1840.07	34.4723
1838.62	94.7817
1837.17	82.7036
1835.72	89.5794
1834.27	96.4527
1832.82	82.6588
1831.37	75.7568
1829.91	149.765
1828.46	55.076
1827.01	82.599
1825.56	80.8636
1824.1	96.3307
1822.65	49.8765
1821.19	101.455
1819.74	96.2784
1818.29	55.0063
1816.83	94.525
1815.38	80.7613
1813.92	44.6684
1812.47	51.5311
1811.01	42.9348
1809.55	106.459
1808.1	96.1392
1806.64	72.0914
1805.19	96.1044
1803.73	96.087
1802.27	72.0522
1800.81	60.0327
1799.36	109.754
1797.9	61.7255
1796.44	61.7143
1794.98	85.6988
1793.52	75.4013
1792.06	58.2541
1790.6	66.8088
1789.14	77.0731
1787.68	85.6213
1786.22	75.3331
1784.76	82.1666
1783.3	99.2667
1781.84	104.382
1780.38	114.629
1778.92	71.8437
1777.46	87.223
1775.99	54.7182
1774.53	111.126
1773.07	87.1756
1771.61	66.6516
1770.14	52.9699
1768.68	75.1694
1767.22	85.4043
1765.75	90.5121
1764.29	92.2032
1762.82	25.6074
1761.36	104.118
1759.89	95.5661
1758.43	59.718
1756.96	30.7065
1755.5	73.3412
1754.03	39.2219
1752.57	85.2495
1751.1	81.8247
1749.63	83.5142
1748.17	73.2747
1746.7	103.929
1745.23	110.724
1743.76	81.7505
1742.29	37.4622
1740.83	80.0183
1739.36	76.5993
1737.89	44.2494
1736.42	61.2572
1734.95	88.4666
1733.48	62.9359
1732.01	74.8291
1730.54	71.4149
1729.07	66.3017
1727.6	84.9868
1726.13	96.8673
1724.66	73.0621
1723.18	100.23
1721.71	66.2415
1720.24	90.0042
1718.77	59.4259
1717.3	93.3666
1715.82	112.02
1714.35	45.8179
1712.88	27.1464
1711.4	103.477
1709.93	81.4096
1708.45	86.4819
1706.98	66.1212
1705.5	77.9749
1704.03	67.792
1702.55	71.1686
1701.08	101.651
1699.6	69.4489
1698.13	72.8234
1696.65	84.6629
1695.17	72.7969
1693.7	57.5498
1692.22	91.386
1690.74	79.5252
1689.26	62.5936
1687.79	57.5079
1686.31	49.042
1684.83	84.5397
1683.35	106.501
1681.87	69.2973
1680.39	87.8733
1678.91	64.2034
1677.43	99.6661
1675.95	40.5348
1674.47	79.3661
1672.99	89.4816
1671.51	81.0252
1670.03	50.6315
1668.55	80.9957
1667.06	84.3551
1665.58	86.0266
1664.1	79.2649
1662.62	64.0749
1661.13	97.7806
1659.65	47.1958
1658.17	84.2629
1656.68	89.3024
1655.2	85.9169
1653.72	72.4265
1652.23	63.9931
1650.75	52.1954
1649.26	52.1859
1647.78	47.127
1646.29	63.9465
1644.8	72.3473
1643.32	55.5122
1641.83	95.8672
1640.34	73.9893
1638.86	89.1072
1637.37	84.048
1635.88	52.1003
1634.4	90.7387
1632.91	78.9619
1631.42	85.6664
1629.93	78.9331
1628.44	83.956
1626.95	65.4737
1625.46	115.817
1623.97	97.3357
1622.48	70.4716
1620.99	90.5898
1619.5	73.8004
1618.01	92.2337
1616.52	57.0068
1615.03	68.7309
1613.54	55.3099
1612.05	68.7058
1610.55	75.395
1609.06	92.1326
1607.57	66.9933
1606.08	87.0753
1604.58	113.847
1603.09	115.5
1601.6	143.93
1600.1	90.3583
1598.61	92.0148
1597.11	98.6887
1595.62	128.774
1594.12	133.766
1592.63	143.772
1591.13	152.103
1589.64	178.814
1588.14	192.148
1586.64	135.315
1585.15	145.311
1583.65	158.644
1582.15	151.937
1580.65	118.522
1579.16	141.867
1577.66	123.485
1576.16	180.188
1574.66	100.086
1573.16	96.7324
1571.66	138.402
1570.16	98.3642
1568.66	93.3455
1567.16	89.9953
1565.66	99.9765
1564.16	81.6325
1562.66	86.6145
1561.16	126.567
1559.66	96.5731
1558.16	53.272
1556.65	84.8866
1555.15	74.8862
1553.65	79.864
1552.15	54.8965
1550.64	96.467
1549.14	69.8426
1547.64	54.8663
1546.13	74.8039
1544.63	79.7762
1543.12	116.319
1541.62	71.44
1540.11	93.0211
1538.61	78.057
1537.1	94.6475
1535.6	58.1062
1534.09	84.6535
1532.59	58.0849
1531.08	89.6003
1529.57	77.9711
1528.06	87.9087
1526.56	64.6757
1525.05	76.2702
1523.54	58.021
1522.03	69.6124
1520.52	72.9139
1519.01	57.9891
1517.51	69.5741
1516	52.9991
1514.49	36.4302
1512.98	79.4695
1511.47	74.4889
1509.96	46.3402
1508.44	46.3317
1506.93	52.9407
1505.42	81.0506
1503.91	62.844
1502.4	89.2883
1500.89	92.5782
1499.37	90.9083
1497.86	64.4504
1496.35	80.9613
1494.83	64.4268
1493.32	75.9766
1491.81	104.036
1490.29	61.0891
1488.78	67.6809
1487.26	80.8721
1485.75	61.0554
1484.23	52.795
1482.72	97.3229
1481.2	84.1111
1479.69	57.7127
1478.17	85.7288
1476.65	65.9331
1475.14	56.0328
1473.62	75.7952
1472.1	102.14
1470.58	56.0019
1469.07	75.7533
1467.55	42.8092
1466.03	77.3717
1464.51	65.8361
1462.99	11.5192
1461.47	80.6195
1459.95	108.57
1458.43	78.9452
1456.91	72.3531
1455.39	103.577
1453.87	92.0518
1452.35	77.2436
1450.83	49.2953
1449.3	52.572
1447.78	72.2732
1446.26	52.5526
1444.74	80.4564
1443.21	65.6666
1441.69	80.4268
1440.17	47.5907
1438.64	39.3782
1437.12	95.1464
1435.6	78.7273
1434.07	68.8737
1432.55	80.3379
1431.02	67.2091
1429.5	85.2251
1427.97	83.5707
1426.45	47.5118
1424.92	27.8466
1423.39	101.54
1421.87	80.2342
1420.34	47.4768
1418.81	42.5576
1417.28	88.3725
1415.76	67.0852
1414.23	68.7088
1412.7	60.518
1411.17	71.9541
1409.64	71.9408
1408.11	94.8136
1406.58	49.0324
1405.05	75.1692
1403.52	62.0848
1401.99	76.775
1400.46	42.4634
1398.93	57.1517
1397.4	57.1412
1395.87	60.3952
1394.34	89.7601
1392.8	57.1095
1391.27	70.1502
1389.74	63.6128
1388.21	58.7087
1386.67	89.6773
1385.14	81.5097
1383.6	70.0854
1382.07	61.9245
1380.54	79.8353
1379	71.6756
1377.47	50.4894
1375.93	83.0478
1374.4	70.0077
1372.86	66.7392
1371.32	55.3345
1369.79	87.8679
1368.25	104.121
1366.71	107.354
1365.18	40.657
1363.64	110.567
1362.1	74.7813
1360.56	55.2629
1359.02	71.5035
1357.49	74.7398
1355.95	50.3588
1354.41	84.4572
1352.87	71.4506
1351.33	64.943
1349.79	71.4241
1348.25	60.0501
1346.71	90.8698
1345.17	71.3845
1343.62	53.5284
1342.08	53.5185
1340.54	76.2092
1339	76.1951
1337.46	59.9723
1335.91	46.9966
1334.37	115.039
1332.83	76.1387
1331.28	85.8426
1329.74	66.3943
1328.2	53.4294
1326.65	69.6072
1325.11	61.5019
1323.56	59.8724
1322.02	97.0723
1320.47	88.9665
1318.93	85.7154
1317.38	63.0619
1315.83	48.5002
1314.29	96.9824
1312.74	51.7144
1311.19	64.631
1309.65	56.5416
1308.1	77.5284
1306.55	61.3653
1305	106.562
1303.45	24.2141
1301.9	75.8569
1300.35	74.2292
1298.8	74.2154
1297.25	50.0054
1295.7	79.0262
1294.15	49.9869
1292.6	49.9776
1291.05	40.297
1289.5	72.5212
1287.95	62.84
1286.4	74.1053
1284.85	32.2137
1283.29	91.792
1281.74	59.5732
1280.19	41.8545
1278.63	53.1131
1277.08	53.1033
1275.53	35.3956
1273.97	72.3866
1272.42	67.5483
1270.86	62.7118
1269.31	67.5232
1267.75	102.873
1266.2	53.0342
1264.64	88.374
1263.09	107.636
1261.53	25.6992
1259.97	59.4184
1258.42	85.0971
1256.86	70.6335
1255.3	46.5452
1253.74	33.6989
1252.18	51.3412
1250.63	93.0386
1249.07	81.7946
1247.51	51.3125
1245.95	70.5416
1244.39	86.5577
1242.83	40.0655
1241.27	65.6953
1239.71	76.8972
1238.15	62.4674
1236.59	80.0715
1235.02	62.4441
1233.46	86.445
1231.9	102.434
1230.34	49.6074
1228.78	97.5963
1227.21	57.5871
1225.65	43.1823
1224.09	78.3532
1222.52	60.7524
1220.96	60.7411
1219.39	39.9538
1217.83	70.3056
1216.27	67.0974
1214.7	43.126
1213.13	67.0724
1211.57	59.0766
1210	51.0837
1208.44	67.0349
1206.87	41.4901
1205.3	67.0099
1203.74	47.8553
1202.17	100.477
1200.6	51.0266
1199.03	74.9314
1197.46	47.8196
1195.9	70.1224
1194.33	50.9886
1192.76	86.0272
1191.19	89.1968
1189.62	47.7751
1188.05	57.3194
1186.48	70.044
1184.91	60.4812
1183.34	42.9655
1181.76	41.3664
1180.19	47.7216
1178.62	65.2074
1177.05	65.1952
1175.48	39.7457
1173.9	30.2011
1172.33	42.9094
1170.76	81.0359
1169.18	58.7798
1167.61	63.5339
1166.03	46.0534
1164.46	65.0979
1162.88	49.2112
1161.31	50.7891
1159.73	53.9534
1158.16	77.7418
1156.58	25.3803
1155.01	49.1652
1153.43	68.1842
1151.85	31.7076
1150.28	72.9139
1148.7	72.9003
1147.12	49.1193
1145.54	69.7047
1143.96	31.678
1142.39	49.0917
1140.81	49.0826
1139.23	58.5715
1137.65	60.1432
1136.07	64.8792
1134.49	74.3599
1132.91	41.1275
1131.33	75.9136
1129.75	56.9245
1128.16	42.6854
1126.58	64.8065
1125	48.9908
1123.42	91.6431
1121.84	42.6535
1120.25	74.2347
1118.67	72.6417
1117.09	41.0507
1115.5	71.0359
1113.92	89.962
1112.33	55.2295
1110.75	42.5976
1109.16	37.8574
1107.58	39.4275
1105.99	59.9185
1104.41	93.014
1102.82	58.3199
1101.24	55.1571
1099.65	15.7562
1098.06	23.6299
1096.47	37.8008
1094.89	53.541
1093.3	69.2754
1091.71	72.4107
1090.12	116.465
1088.53	56.648
1086.94	88.1026
1085.36	83.3672
1083.77	39.3168
1082.18	40.8818
1080.59	62.8833
1079	36.1511
1077.4	67.5742
1075.81	56.5631
1074.22	72.2615
1072.63	62.8243
1071.04	37.6875
1069.45	37.6804
1067.85	81.6257
1066.26	84.7492
1064.67	73.7493
1063.07	51.7717
1061.48	84.7015
1059.89	65.8666
1058.29	73.694
1056.7	43.8946
1055.1	73.6663
1053.51	87.7562
1051.91	75.2054
1050.31	79.8908
1048.72	50.1181
1047.12	81.4267
1045.52	84.5426
1043.93	73.5695
1042.33	53.2105
1040.73	45.3769
1039.13	71.9637
1037.54	76.6425
1035.94	59.4259
1034.34	75.0502
1032.74	71.9096
1031.14	59.3924
1029.54	56.2559
1027.94	89.0551
1026.34	60.921
1024.74	65.5949
1023.14	49.9676
1021.54	88.9881
1019.93	84.2887
1018.33	26.5303
1016.73	49.9301
1015.13	82.6811
1013.53	46.7918
1011.92	43.6642
1010.32	99.785
1008.71	62.3539
1007.11	71.6935
1005.51	59.2139
1003.9	109.058
1002.3	65.4223
1000.69	70.0821
999.086	87.1969