File: Akinwande-lab-measurements/raman/data/Raman 25-12-17 wafer-2/gr-baseline-2.txt
2999.69	158.359
2998.44	116.264
2997.19	158.332
2995.94	146.282
2994.7	136.239
2993.45	114.181
2992.2	180.255
2990.95	170.212
2989.7	96.1035
2988.45	132.12
2987.2	148.109
2985.96	164.093
2984.71	146.058
2983.46	120.027
2982.21	116.006
2980.96	159.981
2979.71	67.9805
2978.45	109.95
2977.2	127.92
2975.95	147.882
2974.7	87.9148
2973.45	133.847
2972.2	113.851
2970.95	119.822
2969.69	169.719
2968.44	179.672
2967.19	155.689
2965.94	157.659
2964.68	107.748
2963.43	107.73
2962.18	125.663
2960.92	123.648
2959.67	91.7229
2958.42	179.427
2957.16	111.625
2955.91	133.528
2954.65	131.513
2953.4	149.421
2952.14	129.476
2950.89	107.546
2949.63	145.362
2948.38	103.528
2947.12	147.302
2945.86	145.287
2944.61	135.313
2943.35	177.07
2942.1	111.396
2940.84	115.355
2939.58	153.117
2938.32	107.362
2937.07	143.126
2935.81	111.301
2934.55	101.346
2933.29	133.118
2932.03	113.23
2930.77	107.252
2929.52	83.4043
2928.26	103.245
2927	131.019
2925.74	136.951
2924.48	125.021
2923.22	194.444
2921.96	119.027
2920.7	138.841
2919.44	105.104
2918.18	180.431
2916.91	158.594
2915.65	103.068
2914.39	116.923
2913.13	160.494
2911.87	128.769
2910.61	114.882
2909.34	120.804
2908.08	120.783
2906.82	126.702
2905.56	174.185
2904.29	124.679
2903.03	106.85
2901.76	146.398
2900.5	85.0547
2899.24	152.281
2897.97	102.822
2896.71	152.229
2895.44	156.156
2894.18	152.177
2892.91	104.727
2891.65	128.417
2890.38	94.8148
2889.12	157.998
2887.85	136.25
2886.58	159.918
2885.32	120.411
2884.05	110.523
2882.78	149.969
2881.52	106.539
2880.25	128.219
2878.98	116.364
2877.71	104.512
2876.45	126.182
2875.18	149.815
2873.91	130.08
2872.64	106.411
2871.37	147.768
2870.1	153.652
2868.83	88.6302
2867.56	159.507
2866.29	151.604
2865.02	108.27
2863.75	175.171
2862.48	114.137
2861.21	106.247
2859.94	127.868
2858.67	104.244
2857.4	135.69
2856.13	123.87
2854.86	104.19
2853.58	96.31
2852.31	167.04
2851.04	157.187
2849.77	137.515
2848.49	121.778
2847.22	202.274
2845.95	135.481
2844.67	145.273
2843.4	137.397
2842.13	129.523
2840.85	92.2205
2839.58	143.211
2838.3	125.534
2837.03	149.046
2835.75	131.373
2834.48	137.232
2833.2	162.69
2831.93	168.541
2830.65	144.999
2829.38	143.015
2828.1	160.619
2826.82	135.132
2825.55	142.941
2824.27	180.114
2822.99	101.786
2821.71	125.254
2820.44	133.059
2819.16	140.862
2817.88	138.882
2816.6	152.548
2815.32	148.611
2814.05	174.001
2812.77	87.963
2811.49	91.8566
2810.21	160.233
2808.93	130.9
2807.65	128.924
2806.37	123.042
2805.09	105.447
2803.81	146.428
2802.53	144.451
2801.25	136.62
2799.97	115.131
2798.68	152.181
2797.4	111.19
2796.12	144.327
2794.84	95.5514
2793.56	116.982
2792.27	138.404
2790.99	105.247
2789.71	173.433
2788.42	161.713
2787.14	111.037
2785.86	128.547
2784.57	124.63
2783.29	165.496
2782.01	124.587
2780.72	124.566
2779.44	171.248
2778.15	165.382
2776.87	124.501
2775.58	180.885
2774.3	159.462
2773.01	151.657
2771.72	75.8157
2770.44	128.281
2769.15	143.806
2767.86	110.75
2766.58	134.043
2765.29	112.654
2764	147.591
2762.72	124.265
2761.43	133.951
2760.14	151.396
2758.85	155.251
2757.56	110.598
2756.27	98.9386
2754.99	155.171
2753.7	96.9652
2752.41	143.484
2751.12	158.968
2749.83	139.558
2748.54	149.223
2747.25	108.507
2745.96	156.921
2744.67	127.84
2743.38	131.691
2742.08	164.585
2740.79	189.724
2739.5	178.078
2738.21	178.047
2736.92	145.122
2735.63	150.901
2734.33	177.955
2733.04	160.518
2731.75	193.362
2730.45	179.796
2729.16	187.496
2727.87	199.06
2726.57	202.89
2725.28	212.515
2723.99	220.204
2722.69	245.273
2721.4	264.54
2720.1	250.98
2718.81	223.913
2717.51	231.594
2716.21	268.217
2714.92	254.665
2713.62	325.992
2712.33	333.651
2711.03	356.732
2709.73	320.04
2708.44	335.405
2707.14	412.438
2705.84	431.637
2704.54	452.755
2703.25	481.571
2701.95	475.71
2700.65	521.842
2699.35	564.108
2698.05	627.534
2696.75	662.068
2695.45	740.849
2694.16	748.417
2692.86	775.218
2691.56	842.399
2690.26	813.409
2688.96	820.959
2687.66	836.195
2686.35	761.094
2685.05	826.297
2683.75	770.437
2682.45	774.145
2681.15	764.408
2679.85	720.109
2678.55	764.143
2677.24	658.432
2675.94	662.156
2674.64	685.069
2673.33	594.775
2672.03	542.878
2670.73	523.604
2669.42	481.326
2668.12	440.979
2666.82	456.238
2665.51	341.161
2664.21	335.353
2662.9	335.295
2661.6	337.152
2660.29	247.075
2658.99	285.331
2657.68	275.709
2656.37	256.518
2655.07	244.989
2653.76	279.392
2652.46	244.904
2651.15	206.602
2649.84	216.13
2648.53	225.654
2647.23	195.023
2645.92	185.431
2644.61	173.931
2643.3	175.811
2641.99	145.21
2640.69	185.302
2639.38	166.17
2638.07	215.792
2636.76	139.382
2635.45	150.811
2634.14	129.79
2632.83	143.126
2631.52	167.905
2630.21	120.184
2628.9	156.403
2627.59	110.607
2626.28	181.135
2624.96	127.726
2623.65	104.831
2622.34	144.833
2621.03	148.618
2619.72	140.972
2618.4	129.52
2617.09	158.063
2615.78	100.914
2614.46	78.052
2613.15	119.913
2611.84	123.698
2610.52	119.871
2609.21	104.631
2607.89	89.3965
2606.58	123.612
2605.27	140.703
2603.95	117.866
2602.63	112.143
2601.32	136.829
2600	142.505
2598.69	93.0873
2597.37	144.355
2596.06	115.844
2594.74	113.925
2593.42	161.366
2592.1	163.236
2590.79	174.594
2589.47	92.974
2588.15	147.974
2586.83	132.774
2585.52	134.647
2584.2	111.87
2582.88	144.079
2581.56	108.041
2580.24	123.183
2578.92	168.636
2577.6	107.984
2576.28	107.965
2574.96	117.416
2573.64	111.715
2572.32	153.344
2571	124.926
2569.68	136.259
2568.36	162.725
2567.04	85.132
2565.71	87.0087
2564.39	104.014
2563.07	109.668
2561.75	151.24
2560.42	113.411
2559.1	107.721
2557.78	128.487
2556.46	120.908
2555.13	124.665
2553.81	101.981
2552.48	84.969
2551.16	166.133
2549.84	101.927
2548.51	111.346
2547.19	115.1
2545.86	105.647
2544.54	107.515
2543.21	177.274
2541.88	133.875
2540.56	111.229
2539.23	101.785
2537.9	107.421
2536.58	114.939
2535.25	143.178
2533.92	116.783
2532.6	101.696
2531.27	88.4981
2529.94	107.309
2528.61	127.995
2527.28	107.271
2525.96	101.608
2524.63	90.3022
2523.3	127.906
2521.97	124.122
2520.64	105.297
2519.31	105.279
2517.98	109.02
2516.65	107.122
2515.32	154.078
2513.99	97.6908
2512.66	99.5521
2511.33	101.413
2509.99	76.9851
2508.66	120.151
2507.33	129.515
2506	121.986
2504.67	84.4368
2503.33	103.183
2502	123.797
2500.67	125.651
2499.33	131.254
2498	118.108
2496.67	136.832
2495.33	134.934
2494	131.163
2492.66	118.026
2491.33	116.132
2489.99	101.13
2488.66	140.433
2487.32	110.455
2485.99	144.128
2484.65	121.645
2483.32	123.495
2481.98	108.507
2480.64	106.617
2479.31	127.17
2477.97	99.1007
2476.63	136.473
2475.29	115.889
2473.96	115.868
2472.62	102.768
2471.28	104.619
2469.94	155.033
2468.6	98.9793
2467.26	145.642
2465.93	151.217
2464.59	126.926
2463.25	153.031
2461.91	126.881
2460.57	141.784
2459.23	141.759
2457.89	130.544
2456.55	139.845
2455.2	149.141
2453.86	143.523
2452.52	108.09
2451.18	111.797
2449.84	150.9
2448.5	126.659
2447.15	150.847
2445.81	91.2371
2444.47	169.411
2443.12	169.381
2441.78	128.409
2440.44	106.059
2439.09	111.621
2437.75	133.922
2436.41	154.355
2435.06	50.2031
2433.72	104.107
2432.37	117.099
2431.03	94.7781
2429.68	109.626
2428.33	115.18
2426.99	87.2986
2425.64	90.9975
2424.3	64.9868
2422.95	126.238
2421.6	120.647
2420.26	100.213
2418.91	113.183
2417.56	111.308
2416.21	81.6117
2414.86	131.669
2413.52	122.375
2412.17	120.499
2410.82	103.797
2409.47	105.632
2408.12	98.2015
2406.77	120.415
2405.42	96.3148
2404.07	94.446
2402.72	111.093
2401.37	111.074
2400.02	98.0981
2398.67	157.3
2397.32	109.165
2395.97	92.4966
2394.61	122.074
2393.26	90.6148
2391.91	110.937
2390.56	136.799
2389.21	90.5671
2387.85	88.7032
2386.5	105.317
2385.15	94.214
2383.79	131.138
2382.44	86.7941
2381.09	147.709
2379.73	118.146
2378.38	131.045
2377.02	129.177
2375.67	114.394
2374.31	142.045
2372.96	97.7538
2371.6	106.957
2370.24	103.251
2368.89	129.041
2367.53	158.508
2366.18	106.882
2364.82	134.5
2363.46	92.1071
2362.1	114.193
2360.75	93.9162
2359.39	104.947
2358.03	103.087
2356.67	132.518
2355.31	62.5667
2353.95	130.631
2352.6	97.4961
2351.24	119.55
2349.88	99.3007
2348.52	64.3502
2347.16	45.9564
2345.8	139.683
2344.44	99.2308
2343.08	95.5387
2341.72	67.9675
2340.35	134.074
2338.99	82.634
2337.63	106.487
2336.27	71.5909
2334.91	100.944
2333.54	126.616
2332.18	154.114
2330.82	113.731
2329.46	104.541
2328.09	73.349
2326.73	102.67
2325.36	100.819
2324	137.457
2322.64	122.773
2321.27	93.4375
2319.91	97.0846
2318.54	80.5843
2317.18	87.8947
2315.81	137.311
2314.45	118.982
2313.08	58.5655
2311.71	111.621
2310.35	85.9877
2308.98	113.411
2307.61	65.8397
2306.25	104.228
2304.88	102.381
2303.51	129.782
2302.14	104.173
2300.77	87.7088
2299.41	111.444
2298.04	98.6375
2296.67	113.23
2295.3	82.1689
2293.93	78.5031
2292.56	93.0919
2291.19	98.5505
2289.82	102.182
2288.45	125.881
2287.08	67.4895
2285.71	120.365
2284.34	102.11
2282.97	116.677
2281.6	80.2011
2280.22	98.4113
2278.85	112.971
2277.48	91.0893
2276.11	114.752
2274.73	138.407
2273.36	105.608
2271.99	81.9225
2270.61	103.75
2269.24	149.228
2267.87	81.879
2266.49	123.706
2265.12	158.243
2263.74	118.207
2262.37	149.096
2260.99	99.9859
2259.62	63.6161
2258.24	123.575
2256.87	94.4819
2255.49	81.7488
2254.11	116.244
2252.74	105.328
2251.36	137.991
2249.98	105.291
2248.61	116.162
2247.23	114.327
2245.85	114.307
2244.47	119.729
2243.09	101.57
2241.71	92.4847
2240.34	114.226
2238.96	114.205
2237.58	125.06
2236.2	74.2978
2234.82	81.532
2233.44	77.8945
2232.06	110.482
2230.68	103.219
2229.3	119.495
2227.92	94.1313
2226.53	117.643
2225.15	68.7639
2223.77	132.076
2222.39	81.402
2221.01	139.263
2219.62	86.7981
2218.24	63.279
2216.86	93.9979
2215.47	86.7519
2214.09	106.614
2212.71	112.015
2211.32	72.2548
2209.94	99.3327
2208.55	108.344
2207.17	126.379
2205.78	81.229
2204.4	92.0432
2203.01	75.7868
2201.63	72.1651
2200.24	102.817
2198.86	79.3535
2197.47	147.86
2196.08	109.974
2194.7	102.744
2193.31	118.946
2191.92	90.0944
2190.53	104.491
2189.15	162.112
2187.76	86.4446
2186.37	81.0274
2184.98	136.822
2183.59	84.5986
2182.2	88.1829
2180.81	100.763
2179.42	127.73
2178.03	97.1294
2176.64	98.9105
2175.25	75.5182
2173.86	124.044
2172.47	93.4655
2171.08	131.188
2169.69	152.726
2168.3	111.38
2166.91	91.603
2165.51	116.728
2164.12	111.321
2162.73	89.759
2161.34	93.3327
2159.94	84.3434
2158.55	107.653
2157.16	96.8708
2155.76	34.0781
2154.37	127.322
2152.97	116.541
2151.58	96.8019
2150.18	93.2
2148.79	123.647
2147.39	116.459
2146	98.5244
2144.6	68.0593
2143.21	96.6986
2141.81	105.633
2140.41	94.8741
2139.02	80.5391
2137.62	78.7354
2136.22	94.8234
2134.82	123.427
2133.43	116.252
2132.03	66.1622
2130.63	117.998
2129.23	116.189
2127.83	66.1268
2126.43	103.64
2125.03	108.981
2123.63	75.0228
2122.23	92.8688
2120.83	82.1385
2119.43	108.903
2118.03	146.369
2116.63	110.649
2115.23	80.2957
2113.83	60.657
2112.43	92.753
2111.03	94.5199
2109.63	60.6246
2108.22	78.4414
2106.82	92.6869
2105.42	64.1564
2104.01	87.3085
2102.61	97.9818
2101.21	80.1527
2099.8	108.632
2098.4	115.735
2097	67.6483
2095.59	106.794
2094.19	99.6566
2092.78	129.886
2091.38	72.9368
2089.97	83.5956
2088.56	110.255
2087.16	76.4538
2085.75	135.104
2084.34	101.31
2082.94	67.5277
2081.53	87.0596
2080.12	117.243
2078.72	81.7002
2077.31	76.3583
2075.9	69.2429
2074.49	101.183
2073.08	108.264
2071.67	113.568
2070.27	90.4837
2068.86	101.111
2067.45	88.6778
2066.04	104.621
2064.63	101.057
2063.22	101.039
2061.81	90.3868
2060.39	90.3706
2058.98	93.8978
2057.57	106.28
2056.16	97.4063
2054.75	88.5353
2053.34	102.683
2051.92	54.8723
2050.51	95.5669
2049.1	109.705
2047.69	95.5327
2046.27	68.9835
2044.86	83.1191
2043.44	81.3361
2042.03	99.0001
2040.62	100.75
2039.2	88.3614
2037.79	81.2779
2036.37	120.128
2034.96	79.4826
2033.54	102.426
2032.12	95.3449
2030.71	118.277
2029.29	98.8409
2027.88	105.882
2026.46	93.5123
2025.04	86.4393
2023.62	82.8963
2022.21	91.6987
2020.79	118.129
2019.37	63.461
2017.95	91.6494
2016.53	91.633
2015.11	133.901
2013.69	110.977
2012.28	70.4491
2010.86	116.22
2009.44	54.5785
2008.02	58.0893
2006.59	87.9983
2005.17	79.1843
2003.75	73.8921
2002.33	47.4935
2000.91	28.1393
1999.49	110.779
1998.07	91.4198
1996.64	80.8569
1995.22	43.9361
1993.8	84.3422
1992.38	94.8679
1990.95	121.198
1989.53	80.7845
1988.11	87.7934
1986.68	122.889
1985.26	124.622
1983.83	40.3633
1982.41	59.6567
1980.98	92.9776
1979.56	64.8973
1978.13	61.3783
1976.71	92.9276
1975.28	99.9231
1973.85	75.367
1972.43	96.3824
1971	87.6046
1969.57	68.3193
1968.15	84.0703
1966.72	71.7971
1965.29	140.067
1963.86	77.0229
1962.43	73.5087
1961	82.2449
1959.58	57.7361
1958.15	111.953
1956.72	110.184
1955.29	125.902
1953.86	85.6677
1952.43	118.864
1951	87.3846
1949.57	120.569
1948.13	68.1355
1946.7	92.5778
1945.27	96.054
1943.84	94.2907
1942.41	76.8156
1940.98	92.5113
1939.54	87.2591
1938.11	109.927
1936.68	95.9505
1935.24	69.7696
1933.81	118.587
1932.38	109.848
1930.94	137.721
1929.51	99.3502
1928.07	115.016
1926.64	92.3451
1925.2	55.7455
1923.77	55.7354
1922.33	67.9154
1920.9	78.3498
1919.46	106.188
1918.03	128.795
1916.59	88.7485
1915.15	71.334
1913.71	109.591
1912.28	106.093
1910.84	62.6009
1909.4	99.1002
1907.96	90.391
1906.52	132.086
1905.09	95.5714
1903.65	92.0795
1902.21	121.593
1900.77	131.991
1899.33	86.8205
1897.89	78.1244
1896.45	107.619
1895.01	83.3027
1893.57	93.6986
1892.13	128.379
1890.68	91.9303
1889.24	116.193
1887.8	97.0989
1886.36	100.549
1884.92	97.0639
1883.47	86.6486
1882.03	86.633
1880.59	107.406
1879.14	121.242
1877.7	77.9275
1876.26	62.3308
1874.81	79.6305
1873.37	109.039
1871.92	93.4456
1870.48	70.9366
1869.03	65.7343
1867.59	81.2882
1866.14	131.421
1864.7	102.006
1863.25	95.0731
1861.8	105.426
1860.36	101.951
1858.91	101.932
1857.46	103.641
1856.02	44.9031
1854.57	82.883
1853.12	108.764
1851.67	84.5792
1850.22	132.886
1848.77	69.0193
1847.32	74.1824
1845.87	51.7458
1844.43	62.0838
1842.98	70.6937
1841.53	99.9877
1840.07	110.311
1838.62	101.675
1837.17	98.2105
1835.72	67.1845
1834.27	105.065
1832.82	110.212
1831.37	65.4264
1829.91	86.0718
1828.46	86.0562
1827.01	141.107
1825.56	79.1431
1824.1	92.8903
1822.65	89.4338
1821.19	108.333
1819.74	73.9281
1818.29	97.98
1816.83	92.8063
1815.38	68.733
1813.92	77.3106
1812.47	70.4258
1811.01	60.1088
1809.55	66.9662
1808.1	121.891
1806.64	61.7926
1805.19	85.8075
1803.73	96.087
1802.27	108.078
1800.81	78.9001
1799.36	41.1578
1797.9	85.7299
1796.44	85.7144
1794.98	109.695
1793.52	116.529
1792.06	114.795
1790.6	95.9306
1789.14	80.4986
1787.68	131.857
1786.22	87.3179
1784.76	114.691
1783.3	107.824
1781.84	78.7145
1780.38	42.7719
1778.92	63.2909
1777.46	95.7743
1775.99	54.7182
1774.53	99.1588
1773.07	82.0476
1771.61	88.8688
1770.14	97.3962
1768.68	90.545
1767.22	97.3609
1765.75	49.5255
1764.29	81.9584
1762.82	75.1149
1761.36	100.704
1759.89	51.1961
1758.43	122.848
1756.96	93.8255
1755.5	69.93
1754.03	90.3809
1752.57	100.594
1751.1	80.12
1749.63	90.3317
1748.17	42.6016
1746.7	105.633
1745.23	103.91
1743.76	59.6097
1742.29	93.6554
1740.83	54.4805
1739.36	86.8126
1737.89	78.2873
1736.42	105.499
1734.95	95.2717
1733.48	83.3476
1732.01	62.9245
1730.54	71.4149
1729.07	85.0022
1727.6	66.2897
1726.13	120.659
1724.66	101.947
1723.18	71.35
1721.71	96.8146
1720.24	47.5494
1718.77	129.039
1717.3	89.9715
1715.82	88.2579
1714.35	127.272
1712.88	79.7425
1711.4	128.922
1709.93	78.0175
1708.45	50.8717
1706.98	55.9487
1705.5	116.962
1704.03	110.162
1702.55	89.808
1701.08	77.9324
1699.6	118.571
1698.13	86.3719
1696.65	104.982
1695.17	106.656
1693.7	91.4027
1692.22	116.771
1690.74	101.522
1689.26	79.5107
1687.79	62.5822
1686.31	55.8064
1684.83	103.138
1683.35	98.0482
1681.87	96.3402
1680.39	67.5948
1678.91	89.5469
1677.43	64.1917
1675.95	48.9795
1674.47	87.8093
1672.99	108.053
1671.51	74.2731
1670.03	28.6912
1668.55	114.744
1667.06	48.926
1665.58	52.2907
1664.1	82.6379
1662.62	72.5058
1661.13	74.1784
1659.65	75.8505
1658.17	111.227
1656.68	77.5078
1655.2	42.1161
1653.72	55.5831
1652.23	69.0452
1650.75	79.135
1649.26	72.3869
1647.78	111.085
1646.29	82.4573
1644.8	99.2672
1643.32	62.241
1641.83	105.959
1640.34	70.6261
1638.86	70.6132
1637.37	102.539
1635.88	84.0327
1634.4	77.296
1632.91	80.6419
1631.42	134.379
1629.93	92.3685
1628.44	52.0527
1626.95	120.875
1625.46	110.782
1623.97	82.2319
1622.48	104.029
1620.99	114.076
1619.5	115.732
1618.01	88.8797
1616.52	100.6
1615.03	125.727
1613.54	95.5352
1612.05	90.4905
1610.55	88.7985
1609.06	98.8331
1607.57	78.7171
1606.08	118.891
1604.58	92.0821
1603.09	130.565
1601.6	123.847
1600.1	128.844
1598.61	143.878
1597.11	175.632
1595.62	272.599
1594.12	247.468
1592.63	279.186
1591.13	284.149
1589.64	262.372
1588.14	309.108
1586.64	262.276
1585.15	248.866
1583.65	188.703
1582.15	203.695
1580.65	143.562
1579.16	201.952
1577.66	141.841
1576.16	171.846
1574.66	123.44
1573.16	135.092
1571.66	123.395
1570.16	136.71
1568.66	136.685
1567.16	169.991
1565.66	79.9812
1564.16	91.6283
1562.66	84.9489
1561.16	89.9294
1559.66	96.5731
1558.16	91.5612
1556.65	78.2289
1555.15	101.512
1553.65	98.1662
1552.15	64.8776
1550.64	124.742
1549.14	73.1685
1547.64	89.7812
1546.13	88.1024
1544.63	69.8042
1543.12	79.7616
1541.62	74.7628
1540.11	54.816
1538.61	83.0393
1537.1	48.154
1535.6	41.5044
1534.09	82.9937
1532.59	102.893
1531.08	89.6003
1529.57	87.9249
1528.06	81.2741
1526.56	84.5759
1525.05	87.8765
1523.54	82.8871
1522.03	59.6678
1520.52	81.1996
1519.01	89.4688
1517.51	74.5437
1516	84.4673
1514.49	105.979
1512.98	110.926
1511.47	67.8677
1509.96	54.6152
1508.44	41.3675
1506.93	62.8671
1505.42	57.8933
1503.91	102.535
1502.4	74.4069
1500.89	109.11
1499.37	80.9911
1497.86	77.671
1496.35	66.0909
1494.83	107.378
1493.32	102.403
1491.81	51.1922
1490.29	66.0423
1488.78	82.5377
1487.26	69.3189
1485.75	57.7551
1484.23	80.8423
1482.72	85.7761
1481.2	57.7233
1479.69	82.4467
1478.17	57.7021
1476.65	89.0097
1475.14	74.1611
1473.62	59.318
1472.1	54.3648
1470.58	79.0615
1469.07	98.8087
1467.55	55.9813
1466.03	98.7723
1464.51	46.0853
1462.99	39.4944
1461.47	102.008
1459.95	46.0598
1458.43	57.5642
1456.91	83.8638
1455.39	78.9161
1453.87	67.3951
1452.35	78.887
1450.83	108.45
1449.3	92.001
1447.78	57.49
1446.26	91.9671
1444.74	85.3823
1443.21	132.975
1441.69	88.6336
1440.17	73.8477
1438.64	83.6786
1437.12	90.225
1435.6	70.5266
1434.07	88.5519
1432.55	86.8961
1431.02	62.2913
1429.5	88.503
1427.97	93.4026
1426.45	68.8103
1424.92	52.4172
1423.39	78.6113
1421.87	67.1348
1420.34	96.5907
1418.81	63.8363
1417.28	90.009
1415.76	63.8128
1414.23	78.5243
1412.7	80.1455
1411.17	96.4839
1409.64	80.1159
1408.11	98.083
1406.58	89.8928
1405.05	71.901
1403.52	49.0143
1401.99	45.7383
1400.46	76.7608
1398.93	78.3795
1397.4	60.4064
1395.87	97.9382
1394.34	50.5921
1392.8	76.6899
1391.27	65.256
1389.74	86.4482
1388.21	92.9554
1386.67	60.3283
1385.14	81.5097
1383.6	97.7936
1382.07	60.2949
1380.54	92.8696
1379	92.8524
1377.47	73.291
1375.93	79.791
1374.4	40.7022
1372.86	84.6449
1371.32	87.8842
1369.79	50.4427
1368.25	107.374
1366.71	105.728
1365.18	56.9198
1363.64	71.5431
1362.1	58.5245
1360.56	84.5197
1359.02	78.0038
1357.49	71.4902
1355.95	71.477
1354.41	81.2088
1352.87	115.295
1351.33	61.6959
1349.79	126.615
1348.25	103.87
1346.71	64.907
1345.17	95.7201
1343.62	56.7726
1342.08	108.659
1340.54	89.181
1339	68.0893
1337.46	89.148
1335.91	56.72
1334.37	71.292
1332.83	97.1983
1331.28	77.7443
1329.74	74.4911
1328.2	79.3345
1326.65	92.27
1325.11	93.8714
1323.56	72.8177
1322.02	69.5685
1320.47	87.3489
1318.93	72.7773
1317.38	113.188
1315.83	45.2668
1314.29	69.5041
1312.74	75.9555
1311.19	90.4833
1309.65	93.6975
1308.1	104.986
1306.55	67.8248
1305	122.708
1303.45	64.571
1301.9	43.5774
1300.35	50.024
1298.8	25.814
1297.25	43.5531
1295.7	69.3495
1294.15	58.0493
1292.6	67.7116
1291.05	77.3703
1289.5	80.5791
1287.95	75.7303
1286.4	74.1053
1284.85	56.374
1283.29	46.7012
1281.74	74.064
1280.19	61.1719
1278.63	54.7226
1277.08	72.4135
1275.53	77.2268
1273.97	36.9976
1272.42	30.5576
1270.86	25.7279
1269.31	93.2464
1267.75	65.9033
1266.2	101.247
1264.64	77.1264
1263.09	48.195
1261.53	77.0977
1259.97	81.9011
1258.42	75.4634
1256.86	43.3433
1255.3	35.3102
1253.74	52.9554
1252.18	109.1
1250.63	76.9974
1249.07	60.945
1247.51	64.1407
1245.95	75.3513
1244.39	52.8964
1242.83	59.297
1241.27	72.1046
1239.71	52.8668
1238.15	36.8397
1236.59	60.8543
1235.02	94.4667
1233.46	46.4242
1231.9	91.2305
1230.34	78.4116
1228.78	63.9976
1227.21	70.3842
1225.65	70.3711
1224.09	41.5752
1222.52	75.1412
1220.96	86.3163
1219.39	73.515
1217.83	76.697
1216.27	92.6583
1214.7	59.0986
1213.13	87.8329
1211.57	59.0766
1210	79.8183
1208.44	51.0742
1206.87	95.7463
1205.3	54.2461
1203.74	63.8071
1202.17	33.4925
1200.6	23.9187
1199.03	66.96
1197.46	70.1355
1195.9	50.9981
1194.33	66.9225
1192.76	68.5031
1191.19	81.2328
1189.62	27.0725
1188.05	65.2804
1186.48	49.3492
1184.91	76.3973
1183.34	105.027
1181.76	55.6856
1180.19	44.5402
1178.62	82.702
1177.05	41.3433
1175.48	33.3864
1173.9	57.2232
1172.33	71.5156
1170.76	79.447
1169.18	31.7729
1167.61	54.0038
1166.03	69.8742
1164.46	66.6856
1162.88	90.485
1161.31	68.2479
1159.73	41.2585
1158.16	95.194
1156.58	65.0371
1155.01	109.432
1153.43	39.642
1151.85	76.0983
1150.28	60.2332
1148.7	83.9938
1147.12	72.8867
1145.54	96.636
1143.96	42.7653
1142.39	98.1835
1140.81	68.0823
1139.23	47.4904
1137.65	75.9704
1136.07	53.8023
1134.49	75.942
1132.91	56.9458
1131.33	68.0059
1129.75	72.7369
1128.16	42.6854
1126.58	34.7742
1125	79.0175
1123.42	56.8819
1121.84	58.451
1120.25	82.132
1118.67	30.0042
1117.09	77.3647
1115.5	91.5574
1113.92	58.3964
1112.33	77.3212
1110.75	53.6414
1109.16	82.0245
1107.58	82.0091
1105.99	102.492
1104.41	50.4482
1102.82	70.9296
1101.24	77.2199
1099.65	100.84
1098.06	111.848
1096.47	74.0265
1094.89	47.2421
1093.3	124.381
1091.71	75.559
1090.12	73.971
1088.53	84.972
1086.94	56.6374
1085.36	53.4809
1083.77	83.3516
1082.18	78.6188
1080.59	48.7345
1079	69.1586
1077.4	106.861
1075.81	62.8479
1074.22	76.9742
1072.63	53.4007
1071.04	62.8125
1069.45	69.0808
1067.85	87.9045
1066.26	76.902
1064.67	50.2123
1063.07	62.7536
1061.48	81.5644
1059.89	61.1618
1058.29	28.2232
1056.7	7.83831
1055.1	54.8579
1053.51	67.3842
1051.91	51.7037
1050.31	26.6303
1048.72	43.8534
1047.12	87.6903
1045.52	70.4522
1043.93	39.1327
1042.33	64.1656
1040.73	103.272
1039.13	65.7059
1037.54	84.4632
1035.94	82.8835
1034.34	89.1221
1032.74	67.2198
1031.14	87.5256
1029.54	51.5679
1027.94	95.3046
1026.34	34.3657
1024.74	85.898
1023.14	71.8285
1021.54	60.8866
1019.93	98.3368
1018.33	106.121
1016.73	96.7395
1015.13	67.0809
1013.53	118.539
1011.92	82.65
1010.32	120.054
1008.71	88.8543
1007.11	116.892
1005.51	104.403
1003.9	119.964
1002.3	90.3451
1000.69	118.361
999.086	115.225